trials.thisRepN,trials.thisTrialN,trials.thisN,trials.thisIndex,thisRow.t,notes,nidaqTrigger.started,text_waiting_message.started,key_resp.started,nidaqTrigger.stopped,key_resp.keys,key_resp.rt,key_resp.duration,display_gratings.started,stim_grayScreen.started,stim_grating.started,display_gratings.stopped,Protocol ID,Subject ID,Session ID,Wait for Trigger,date,expName,psychopyVersion,frameRate,expStart,
,,,,,,0.00630859995726496,0.015097900002729148,0.015097900002729148,12.626172599964775,space,12.574678000004496,None,,,,,FOV2,GS10,01,False,2024-08-02_17h24.45.784,Gratings_vis_devJG_v0.6,2024.1.5,None,2024-08-02 17h25.00.089635 -0400,
0,0,0,0,13.29630249994807,,,,,,,,,13.210333499999251,13.29630249994807,16.214960199955385,18.215204799955245,FOV2,GS10,01,False,2024-08-02_17h24.45.784,Gratings_vis_devJG_v0.6,2024.1.5,None,2024-08-02 17h25.00.089635 -0400,
1,0,1,0,18.231948899978306,,,,,,,,,18.21539839997422,18.231948899978306,21.215383299975656,23.21535309997853,FOV2,GS10,01,False,2024-08-02_17h24.45.784,Gratings_vis_devJG_v0.6,2024.1.5,None,2024-08-02 17h25.00.089635 -0400,
2,0,2,0,23.231993199966382,,,,,,,,,23.21555249998346,23.231993199966382,26.21541259996593,28.215214799973182,FOV2,GS10,01,False,2024-08-02_17h24.45.784,Gratings_vis_devJG_v0.6,2024.1.5,None,2024-08-02 17h25.00.089635 -0400,
3,0,3,0,28.2318611999508,,,,,,,,,28.21541679999791,28.2318611999508,31.21537269995315,33.21528139995644,FOV2,GS10,01,False,2024-08-02_17h24.45.784,Gratings_vis_devJG_v0.6,2024.1.5,None,2024-08-02 17h25.00.089635 -0400,
4,0,4,0,33.23188849998405,,,,,,,,,33.215498799982015,33.23188849998405,36.215410099946894,38.21518969995668,FOV2,GS10,01,False,2024-08-02_17h24.45.784,Gratings_vis_devJG_v0.6,2024.1.5,None,2024-08-02 17h25.00.089635 -0400,
5,0,5,0,38.23221389995888,,,,,,,,,38.21540459996322,38.23221389995888,41.215360999980476,43.215202199993655,FOV2,GS10,01,False,2024-08-02_17h24.45.784,Gratings_vis_devJG_v0.6,2024.1.5,None,2024-08-02 17h25.00.089635 -0400,
6,0,6,0,43.23183959996095,,,,,,,,,43.21541199996136,43.23183959996095,46.216740599949844,48.215261699981056,FOV2,GS10,01,False,2024-08-02_17h24.45.784,Gratings_vis_devJG_v0.6,2024.1.5,None,2024-08-02 17h25.00.089635 -0400,
7,0,7,0,48.23181149997981,,,,,,,,,48.21549639996374,48.23181149997981,51.21659399999771,53.215476599987596,FOV2,GS10,01,False,2024-08-02_17h24.45.784,Gratings_vis_devJG_v0.6,2024.1.5,None,2024-08-02 17h25.00.089635 -0400,
8,0,8,0,53.2317884999793,,,,,,,,,53.21568449999904,53.2317884999793,56.21603359997971,58.215200799982995,FOV2,GS10,01,False,2024-08-02_17h24.45.784,Gratings_vis_devJG_v0.6,2024.1.5,None,2024-08-02 17h25.00.089635 -0400,
9,0,9,0,58.232231899979524,,,,,,,,,58.215403499954846,58.232231899979524,61.21718159999,63.216107499960344,FOV2,GS10,01,False,2024-08-02_17h24.45.784,Gratings_vis_devJG_v0.6,2024.1.5,None,2024-08-02 17h25.00.089635 -0400,
10,0,10,0,63.23176139994757,,,,,,,,,63.21632409997983,63.23176139994757,66.21522969997022,68.2162770999712,FOV2,GS10,01,False,2024-08-02_17h24.45.784,Gratings_vis_devJG_v0.6,2024.1.5,None,2024-08-02 17h25.00.089635 -0400,
11,0,11,0,68.23295259999577,,,,,,,,,68.21646769996732,68.23295259999577,71.21521549997851,73.21509169996716,FOV2,GS10,01,False,2024-08-02_17h24.45.784,Gratings_vis_devJG_v0.6,2024.1.5,None,2024-08-02 17h25.00.089635 -0400,
12,0,12,0,73.23348719999194,,,,,,,,,73.21529510000255,73.23348719999194,76.21516829996835,78.21499369997764,FOV2,GS10,01,False,2024-08-02_17h24.45.784,Gratings_vis_devJG_v0.6,2024.1.5,None,2024-08-02 17h25.00.089635 -0400,
13,0,13,0,78.23345189995598,,,,,,,,,78.2151849999791,78.23345189995598,81.21515819994966,83.21496579999803,FOV2,GS10,01,False,2024-08-02_17h24.45.784,Gratings_vis_devJG_v0.6,2024.1.5,None,2024-08-02 17h25.00.089635 -0400,
14,0,14,0,83.23179130000062,,,,,,,,,83.21516409999458,83.23179130000062,86.21512979996623,88.21495069999946,FOV2,GS10,01,False,2024-08-02_17h24.45.784,Gratings_vis_devJG_v0.6,2024.1.5,None,2024-08-02 17h25.00.089635 -0400,
15,0,15,0,88.23160329996608,,,,,,,,,88.21516589995008,88.23160329996608,91.21509369998239,93.21492559998296,FOV2,GS10,01,False,2024-08-02_17h24.45.784,Gratings_vis_devJG_v0.6,2024.1.5,None,2024-08-02 17h25.00.089635 -0400,
16,0,16,0,93.23156849999214,,,,,,,,,93.21511689998442,93.23156849999214,96.21518349996768,98.21488519996637,FOV2,GS10,01,False,2024-08-02_17h24.45.784,Gratings_vis_devJG_v0.6,2024.1.5,None,2024-08-02 17h25.00.089635 -0400,
17,0,17,0,98.23152249999112,,,,,,,,,98.21509319997858,98.23152249999112,101.21521179995034,103.2151104999939,FOV2,GS10,01,False,2024-08-02_17h24.45.784,Gratings_vis_devJG_v0.6,2024.1.5,None,2024-08-02 17h25.00.089635 -0400,
18,0,18,0,103.23152219998883,,,,,,,,,103.21534319996135,103.23152219998883,106.21535959996982,108.21489619999193,FOV2,GS10,01,False,2024-08-02_17h24.45.784,Gratings_vis_devJG_v0.6,2024.1.5,None,2024-08-02 17h25.00.089635 -0400,
19,0,19,0,108.23147319996497,,,,,,,,,108.21508759999415,108.23147319996497,111.21569759998238,113.21483049995732,FOV2,GS10,01,False,2024-08-02_17h24.45.784,Gratings_vis_devJG_v0.6,2024.1.5,None,2024-08-02 17h25.00.089635 -0400,
20,0,20,0,113.23142019996885,,,,,,,,,113.21503169997595,113.23142019996885,116.21604420000222,118.21478039998328,FOV2,GS10,01,False,2024-08-02_17h24.45.784,Gratings_vis_devJG_v0.6,2024.1.5,None,2024-08-02 17h25.00.089635 -0400,
21,0,21,0,118.2314060999779,,,,,,,,,118.21498200000497,118.2314060999779,121.21626869996544,123.21489049994852,FOV2,GS10,01,False,2024-08-02_17h24.45.784,Gratings_vis_devJG_v0.6,2024.1.5,None,2024-08-02 17h25.00.089635 -0400,
22,0,22,0,123.23155559995212,,,,,,,,,123.21510079997825,123.23155559995212,126.21660679997876,128.21527509996668,FOV2,GS10,01,False,2024-08-02_17h24.45.784,Gratings_vis_devJG_v0.6,2024.1.5,None,2024-08-02 17h25.00.089635 -0400,
23,0,23,0,128.23186959995655,,,,,,,,,128.21549119998235,128.23186959995655,131.21482359996298,133.21555899997475,FOV2,GS10,01,False,2024-08-02_17h24.45.784,Gratings_vis_devJG_v0.6,2024.1.5,None,2024-08-02 17h25.00.089635 -0400,
24,0,24,0,133.2313176000025,,,,,,,,,133.21578199998476,133.2313176000025,136.21508759999415,138.21467939997092,FOV2,GS10,01,False,2024-08-02_17h24.45.784,Gratings_vis_devJG_v0.6,2024.1.5,None,2024-08-02 17h25.00.089635 -0400,
25,0,25,0,138.2312435999629,,,,,,,,,138.21487729996443,138.2312435999629,141.2152956999489,143.21462169999722,FOV2,GS10,01,False,2024-08-02_17h24.45.784,Gratings_vis_devJG_v0.6,2024.1.5,None,2024-08-02 17h25.00.089635 -0400,
26,0,26,0,143.23123029997805,,,,,,,,,143.21482699998887,143.23123029997805,146.21466099994723,148.21464589994866,FOV2,GS10,01,False,2024-08-02_17h24.45.784,Gratings_vis_devJG_v0.6,2024.1.5,None,2024-08-02 17h25.00.089635 -0400,
27,0,27,0,148.23124599998118,,,,,,,,,148.2148418999859,148.23124599998118,151.21467159996973,153.21450459997868,FOV2,GS10,01,False,2024-08-02_17h24.45.784,Gratings_vis_devJG_v0.6,2024.1.5,None,2024-08-02 17h25.00.089635 -0400,
28,0,28,0,153.23109369998565,,,,,,,,,153.21470049995696,153.23109369998565,156.2145660999813,158.21445599995786,FOV2,GS10,01,False,2024-08-02_17h24.45.784,Gratings_vis_devJG_v0.6,2024.1.5,None,2024-08-02 17h25.00.089635 -0400,
29,0,29,0,158.23110789997736,,,,,,,,,158.21464909997303,158.23110789997736,161.21461359999375,163.21448739996413,FOV2,GS10,01,False,2024-08-02_17h24.45.784,Gratings_vis_devJG_v0.6,2024.1.5,None,2024-08-02 17h25.00.089635 -0400,
30,0,30,0,163.23105000000214,,,,,,,,,163.2147099999711,163.23105000000214,166.214596899983,168.214463399956,FOV2,GS10,01,False,2024-08-02_17h24.45.784,Gratings_vis_devJG_v0.6,2024.1.5,None,2024-08-02 17h25.00.089635 -0400,
31,0,31,0,168.23122159997,,,,,,,,,168.2146700999583,168.23122159997,171.21486459998414,173.21445919998223,FOV2,GS10,01,False,2024-08-02_17h24.45.784,Gratings_vis_devJG_v0.6,2024.1.5,None,2024-08-02 17h25.00.089635 -0400,
32,0,32,0,173.23114359995816,,,,,,,,,173.21465169999283,173.23114359995816,176.21457889996236,178.21448349999264,FOV2,GS10,01,False,2024-08-02_17h24.45.784,Gratings_vis_devJG_v0.6,2024.1.5,None,2024-08-02 17h25.00.089635 -0400,
33,0,33,0,178.23119279998355,,,,,,,,,178.2146920999512,178.23119279998355,181.2144726999686,183.21444829995744,FOV2,GS10,01,False,2024-08-02_17h24.45.784,Gratings_vis_devJG_v0.6,2024.1.5,None,2024-08-02 17h25.00.089635 -0400,
34,0,34,0,183.23107869998785,,,,,,,,,183.21463869995205,183.23107869998785,186.2147363999975,188.21460479998495,FOV2,GS10,01,False,2024-08-02_17h24.45.784,Gratings_vis_devJG_v0.6,2024.1.5,None,2024-08-02 17h25.00.089635 -0400,
35,0,35,0,188.23131689999718,,,,,,,,,188.21483059995808,188.23131689999718,191.21484819997568,193.21431069995742,FOV2,GS10,01,False,2024-08-02_17h24.45.784,Gratings_vis_devJG_v0.6,2024.1.5,None,2024-08-02 17h25.00.089635 -0400,
36,0,36,0,193.2310166999814,,,,,,,,,193.2145065999939,193.2310166999814,196.21441409998806,198.2143226999906,FOV2,GS10,01,False,2024-08-02_17h24.45.784,Gratings_vis_devJG_v0.6,2024.1.5,None,2024-08-02 17h25.00.089635 -0400,
37,0,37,0,198.2309527999605,,,,,,,,,198.21451139997225,198.2309527999605,201.21437349996995,203.2143285999773,FOV2,GS10,01,False,2024-08-02_17h24.45.784,Gratings_vis_devJG_v0.6,2024.1.5,None,2024-08-02 17h25.00.089635 -0400,
38,0,38,0,203.23102730000392,,,,,,,,,203.21454339998309,203.23102730000392,206.21443609998096,208.21442269999534,FOV2,GS10,01,False,2024-08-02_17h24.45.784,Gratings_vis_devJG_v0.6,2024.1.5,None,2024-08-02 17h25.00.089635 -0400,
39,0,39,0,208.23113849997753,,,,,,,,,208.21462389995577,208.23113849997753,211.21438779996242,213.21428949997062,FOV2,GS10,01,False,2024-08-02_17h24.45.784,Gratings_vis_devJG_v0.6,2024.1.5,None,2024-08-02 17h25.00.089635 -0400,
40,0,40,0,213.23108119994868,,,,,,,,,213.21453549998114,213.23108119994868,216.21425479999743,218.21425969997654,FOV2,GS10,01,False,2024-08-02_17h24.45.784,Gratings_vis_devJG_v0.6,2024.1.5,None,2024-08-02 17h25.00.089635 -0400,
41,0,41,0,218.2309411999886,,,,,,,,,218.21445249998942,218.2309411999886,221.21430729998974,223.21424800000386,FOV2,GS10,01,False,2024-08-02_17h24.45.784,Gratings_vis_devJG_v0.6,2024.1.5,None,2024-08-02 17h25.00.089635 -0400,
42,0,42,0,223.23082439997233,,,,,,,,,223.21444119996158,223.23082439997233,226.21428119996563,228.21421489998465,FOV2,GS10,01,False,2024-08-02_17h24.45.784,Gratings_vis_devJG_v0.6,2024.1.5,None,2024-08-02 17h25.00.089635 -0400,
43,0,43,0,228.23080289998325,,,,,,,,,228.21441099996446,228.23080289998325,231.21426089998567,233.21420449996367,FOV2,GS10,01,False,2024-08-02_17h24.45.784,Gratings_vis_devJG_v0.6,2024.1.5,None,2024-08-02 17h25.00.089635 -0400,
44,0,44,0,233.23089049995178,,,,,,,,,233.21441109996522,233.23089049995178,236.2144769000006,238.21438169997418,FOV2,GS10,01,False,2024-08-02_17h24.45.784,Gratings_vis_devJG_v0.6,2024.1.5,None,2024-08-02 17h25.00.089635 -0400,
45,0,45,0,238.23099359998014,,,,,,,,,238.2145840000012,238.23099359998014,241.21417329995893,243.214134299953,FOV2,GS10,01,False,2024-08-02_17h24.45.784,Gratings_vis_devJG_v0.6,2024.1.5,None,2024-08-02 17h25.00.089635 -0400,
46,0,46,0,243.23073199996725,,,,,,,,,243.2143404999515,243.23073199996725,246.21418299997458,248.21410359995207,FOV2,GS10,01,False,2024-08-02_17h24.45.784,Gratings_vis_devJG_v0.6,2024.1.5,None,2024-08-02 17h25.00.089635 -0400,
47,0,47,0,248.23070309998002,,,,,,,,,248.21429219999118,248.23070309998002,251.21454189997166,253.21409209998092,FOV2,GS10,01,False,2024-08-02_17h24.45.784,Gratings_vis_devJG_v0.6,2024.1.5,None,2024-08-02 17h25.00.089635 -0400,
48,0,48,0,253.23077549994923,,,,,,,,,253.21428139996715,253.23077549994923,256.21406410000054,258.21407339995494,FOV2,GS10,01,False,2024-08-02_17h24.45.784,Gratings_vis_devJG_v0.6,2024.1.5,None,2024-08-02 17h25.00.089635 -0400,
49,0,49,0,258.23070099996403,,,,,,,,,258.21426539996173,258.23070099996403,261.2142198999645,263.21439499995904,FOV2,GS10,01,False,2024-08-02_17h24.45.784,Gratings_vis_devJG_v0.6,2024.1.5,None,2024-08-02 17h25.00.089635 -0400,
50,0,50,0,263.2312376999762,,,,,,,,,263.214617599966,263.2312376999762,266.21414579998236,268.21398459997727,FOV2,GS10,01,False,2024-08-02_17h24.45.784,Gratings_vis_devJG_v0.6,2024.1.5,None,2024-08-02 17h25.00.089635 -0400,
51,0,51,0,268.23060029995395,,,,,,,,,268.2141904999735,268.23060029995395,271.21412379998947,273.21392700000433,FOV2,GS10,01,False,2024-08-02_17h24.45.784,Gratings_vis_devJG_v0.6,2024.1.5,None,2024-08-02 17h25.00.089635 -0400,
52,0,52,0,273.23061119997874,,,,,,,,,273.2141386999865,273.23061119997874,276.2141194999567,278.21396319998894,FOV2,GS10,01,False,2024-08-02_17h24.45.784,Gratings_vis_devJG_v0.6,2024.1.5,None,2024-08-02 17h25.00.089635 -0400,
53,0,53,0,278.2305274999817,,,,,,,,,278.21416269999463,278.2305274999817,281.21410339995055,283.2139184999978,FOV2,GS10,01,False,2024-08-02_17h24.45.784,Gratings_vis_devJG_v0.6,2024.1.5,None,2024-08-02 17h25.00.089635 -0400,
54,0,54,0,283.23051599995233,,,,,,,,,283.2141137999715,283.23051599995233,286.2141088999924,288.21386279998114,FOV2,GS10,01,False,2024-08-02_17h24.45.784,Gratings_vis_devJG_v0.6,2024.1.5,None,2024-08-02 17h25.00.089635 -0400,
55,0,55,0,288.23050199996214,,,,,,,,,288.21406999998726,288.23050199996214,291.2141133999685,293.21387399995,FOV2,GS10,01,False,2024-08-02_17h24.45.784,Gratings_vis_devJG_v0.6,2024.1.5,None,2024-08-02 17h25.00.089635 -0400,
56,0,56,0,293.2304449999938,,,,,,,,,293.21406229998684,293.2304449999938,296.21412019996205,298.21385040000314,FOV2,GS10,01,False,2024-08-02_17h24.45.784,Gratings_vis_devJG_v0.6,2024.1.5,None,2024-08-02 17h25.00.089635 -0400,
57,0,57,0,298.2304784999578,,,,,,,,,298.2140454999753,298.2304784999578,301.21410619997187,303.21393549995264,FOV2,GS10,01,False,2024-08-02_17h24.45.784,Gratings_vis_devJG_v0.6,2024.1.5,None,2024-08-02 17h25.00.089635 -0400,
58,0,58,0,303.23051029996714,,,,,,,,,303.214148799947,303.23051029996714,306.21405299997423,308.21382779994747,FOV2,GS10,01,False,2024-08-02_17h24.45.784,Gratings_vis_devJG_v0.6,2024.1.5,None,2024-08-02 17h25.00.089635 -0400,
59,0,59,0,308.23045829997864,,,,,,,,,308.21401619998505,308.23045829997864,311.21401719999267,313.2138067999622,FOV2,GS10,01,False,2024-08-02_17h24.45.784,Gratings_vis_devJG_v0.6,2024.1.5,None,2024-08-02 17h25.00.089635 -0400,
