trials.thisRepN,trials.thisTrialN,trials.thisN,trials.thisIndex,thisRow.t,notes,nidaqTrigger.started,text_waiting_message.started,key_resp.started,nidaqTrigger.stopped,key_resp.keys,key_resp.rt,key_resp.duration,display_gratings.started,stim_grayScreen.started,stim_grating.started,stim_grayScreen.stopped,stim_grating.stopped,display_gratings.stopped,Protocol ID,Subject ID,Session ID,Wait for Trigger,date,expName,psychopyVersion,frameRate,expStart,
,,,,,,0.0717339999973774,0.07431599998380989,0.07431599998380989,2.0132718000095338,space,1.9300446000415832,None,,,,,,,low,GS15,01,False,2024-08-06_17h46.53.309,Gratings_vis_devJG_v0.6,2024.1.5,None,2024-08-06 17h47.08.046957 -0400,
0,0,0,0,2.0509457000298426,,,,,,,,,2.0497491999994963,2.0509457000298426,5.0614362000487745,7.045015900046565,7.045015900046565,7.0285213000606745,low,GS15,01,False,2024-08-06_17h46.53.309,Gratings_vis_devJG_v0.6,2024.1.5,None,2024-08-06 17h47.08.046957 -0400,
1,0,1,0,7.045015900046565,,,,,,,,,7.028783099958673,7.061647700029425,10.061761799966916,12.045085499994457,12.045085499994457,12.028660199954174,low,GS15,01,False,2024-08-06_17h46.53.309,Gratings_vis_devJG_v0.6,2024.1.5,None,2024-08-06 17h47.08.046957 -0400,
2,0,2,0,12.045085499994457,,,,,,,,,12.028917500050738,12.061704599997029,15.061924600042403,17.04505039996002,17.04505039996002,17.028956199996173,low,GS15,01,False,2024-08-06_17h46.53.309,Gratings_vis_devJG_v0.6,2024.1.5,None,2024-08-06 17h47.08.046957 -0400,
3,0,3,0,17.04505039996002,,,,,,,,,17.02920600003563,17.06165399996098,20.06234930001665,22.045194100006483,22.045194100006483,22.028569799964316,low,GS15,01,False,2024-08-06_17h46.53.309,Gratings_vis_devJG_v0.6,2024.1.5,None,2024-08-06 17h47.08.046957 -0400,
4,0,4,0,22.045194100006483,,,,,,,,,22.028813499957323,22.06164319999516,25.061840699985623,27.045115599990822,27.045115599990822,27.02870420005638,low,GS15,01,False,2024-08-06_17h46.53.309,Gratings_vis_devJG_v0.6,2024.1.5,None,2024-08-06 17h47.08.046957 -0400,
5,0,5,0,27.045115599990822,,,,,,,,,27.02896430005785,27.061725600040518,30.06198600004427,32.04498330003116,32.04498330003116,32.02859610004816,low,GS15,01,False,2024-08-06_17h46.53.309,Gratings_vis_devJG_v0.6,2024.1.5,None,2024-08-06 17h47.08.046957 -0400,
6,0,6,0,32.04498330003116,,,,,,,,,32.02884120005183,32.061624499969184,35.061829500016756,37.0449695000425,37.0449695000425,37.028653000015765,low,GS15,01,False,2024-08-06_17h46.53.309,Gratings_vis_devJG_v0.6,2024.1.5,None,2024-08-06 17h47.08.046957 -0400,
7,0,7,0,37.0449695000425,,,,,,,,,37.02892970002722,37.06170950003434,40.06176740000956,42.044955900055356,42.044955900055356,42.02885260002222,low,GS15,01,False,2024-08-06_17h46.53.309,Gratings_vis_devJG_v0.6,2024.1.5,None,2024-08-06 17h47.08.046957 -0400,
8,0,8,0,42.044955900055356,,,,,,,,,42.02909239998553,42.061892000027,45.06174200004898,47.044883999973536,47.044883999973536,47.0284555000253,low,GS15,01,False,2024-08-06_17h46.53.309,Gratings_vis_devJG_v0.6,2024.1.5,None,2024-08-06 17h47.08.046957 -0400,
9,0,9,0,47.044883999973536,,,,,,,,,47.02870519994758,47.061786200036295,50.06181420001667,52.04495220002718,52.04495220002718,52.02871840004809,low,GS15,01,False,2024-08-06_17h46.53.309,Gratings_vis_devJG_v0.6,2024.1.5,None,2024-08-06 17h47.08.046957 -0400,
10,0,10,0,52.04495220002718,,,,,,,,,52.0289850999834,52.062565900036134,55.06163540005218,57.044812500011176,57.044812500011176,57.0300728000002,low,GS15,01,False,2024-08-06_17h46.53.309,Gratings_vis_devJG_v0.6,2024.1.5,None,2024-08-06 17h47.08.046957 -0400,
11,0,11,0,57.044812500011176,,,,,,,,,57.03033390000928,57.061468699947,60.06164990004618,62.044943999964744,62.044943999964744,62.029599000001326,low,GS15,01,False,2024-08-06_17h46.53.309,Gratings_vis_devJG_v0.6,2024.1.5,None,2024-08-06 17h47.08.046957 -0400,
12,0,12,0,62.044943999964744,,,,,,,,,62.0298525999533,62.061487299972214,65.0616646000417,67.04652820003685,67.04652820003685,67.02996069996152,low,GS15,01,False,2024-08-06_17h46.53.309,Gratings_vis_devJG_v0.6,2024.1.5,None,2024-08-06 17h47.08.046957 -0400,
13,0,13,0,67.04652820003685,,,,,,,,,67.03021530003753,67.06148579996079,70.06161780003458,72.04655279999133,72.04655279999133,72.02832269994542,low,GS15,01,False,2024-08-06_17h46.53.309,Gratings_vis_devJG_v0.6,2024.1.5,None,2024-08-06 17h47.08.046957 -0400,
14,0,14,0,72.04655279999133,,,,,,,,,72.02857389999554,72.0614320000168,75.06161780003458,77.0465599000454,77.0465599000454,77.028537999955,low,GS15,01,False,2024-08-06_17h46.53.309,Gratings_vis_devJG_v0.6,2024.1.5,None,2024-08-06 17h47.08.046957 -0400,
15,0,15,0,77.0465599000454,,,,,,,,,77.0287934000371,77.06165689998306,80.06160230003297,82.04484570003115,82.04484570003115,82.02835619996767,low,GS15,01,False,2024-08-06_17h46.53.309,Gratings_vis_devJG_v0.6,2024.1.5,None,2024-08-06 17h47.08.046957 -0400,
16,0,16,0,82.04484570003115,,,,,,,,,82.02860600000713,82.06146929995157,85.06156299996655,87.04492100002244,87.04492100002244,87.02827989996877,low,GS15,01,False,2024-08-06_17h46.53.309,Gratings_vis_devJG_v0.6,2024.1.5,None,2024-08-06 17h47.08.046957 -0400,
17,0,17,0,87.04492100002244,,,,,,,,,87.02853560005315,87.06135990004987,90.0616554999724,92.04482049995568,92.04482049995568,92.02834179997444,low,GS15,01,False,2024-08-06_17h46.53.309,Gratings_vis_devJG_v0.6,2024.1.5,None,2024-08-06 17h47.08.046957 -0400,
18,0,18,0,92.04482049995568,,,,,,,,,92.02859090000857,92.0614738999866,95.06175300001632,97.04465389996767,97.04465389996767,97.02828159998171,low,GS15,01,False,2024-08-06_17h46.53.309,Gratings_vis_devJG_v0.6,2024.1.5,None,2024-08-06 17h47.08.046957 -0400,
19,0,19,0,97.04465389996767,,,,,,,,,97.02853600005619,97.06144860002678,100.06211030005943,102.04466849996243,102.04466849996243,102.02825910004321,low,GS15,01,False,2024-08-06_17h46.53.309,Gratings_vis_devJG_v0.6,2024.1.5,None,2024-08-06 17h47.08.046957 -0400,
20,0,20,0,102.04466849996243,,,,,,,,,102.02851720002946,102.06132490001619,105.06230630003847,107.04466410004534,107.04466410004534,107.02855279995129,low,GS15,01,False,2024-08-06_17h46.53.309,Gratings_vis_devJG_v0.6,2024.1.5,None,2024-08-06 17h47.08.046957 -0400,
21,0,21,0,107.04466410004534,,,,,,,,,107.02880880003795,107.06122529995628,110.06258050003089,112.04492170002777,112.04492170002777,112.02808920003008,low,GS15,01,False,2024-08-06_17h46.53.309,Gratings_vis_devJG_v0.6,2024.1.5,None,2024-08-06 17h47.08.046957 -0400,
22,0,22,0,112.04492170002777,,,,,,,,,112.02833590004593,112.06189090001862,115.06286589999218,117.04560219997074,117.04560219997074,117.0285674999468,low,GS15,01,False,2024-08-06_17h46.53.309,Gratings_vis_devJG_v0.6,2024.1.5,None,2024-08-06 17h47.08.046957 -0400,
23,0,23,0,117.04560219997074,,,,,,,,,117.0288242000388,117.06165509996936,120.06315569998696,122.04499209998176,122.04499209998176,122.02894340001512,low,GS15,01,False,2024-08-06_17h46.53.309,Gratings_vis_devJG_v0.6,2024.1.5,None,2024-08-06 17h47.08.046957 -0400,
24,0,24,0,122.04499209998176,,,,,,,,,122.02919180004392,122.06164149998222,125.06349590001628,127.04532959999051,127.04532959999051,127.02884379995521,low,GS15,01,False,2024-08-06_17h46.53.309,Gratings_vis_devJG_v0.6,2024.1.5,None,2024-08-06 17h47.08.046957 -0400,
25,0,25,0,127.04532959999051,,,,,,,,,127.02908759994898,127.06189060001634,130.06379949999973,132.04558429995086,132.04558429995086,132.0291316000512,low,GS15,01,False,2024-08-06_17h46.53.309,Gratings_vis_devJG_v0.6,2024.1.5,None,2024-08-06 17h47.08.046957 -0400,
26,0,26,0,132.04558429995086,,,,,,,,,132.0293908000458,132.06216590001713,135.06414659996517,137.0459146000212,137.0459146000212,137.02804430003744,low,GS15,01,False,2024-08-06_17h46.53.309,Gratings_vis_devJG_v0.6,2024.1.5,None,2024-08-06 17h47.08.046957 -0400,
27,0,27,0,137.0459146000212,,,,,,,,,137.02829180005938,137.06240429996978,140.06161370000336,142.04430319997482,142.04430319997482,142.02795380004682,low,GS15,01,False,2024-08-06_17h46.53.309,Gratings_vis_devJG_v0.6,2024.1.5,None,2024-08-06 17h47.08.046957 -0400,
28,0,28,0,142.04430319997482,,,,,,,,,142.0281934000086,142.06272080005147,145.06121479999274,147.0443237000145,147.0443237000145,147.02821210003458,low,GS15,01,False,2024-08-06_17h46.53.309,Gratings_vis_devJG_v0.6,2024.1.5,None,2024-08-06 17h47.08.046957 -0400,
29,0,29,0,147.0443237000145,,,,,,,,,147.0284547000192,147.06097150000278,150.06127760000527,152.0442403999623,152.0442403999623,152.0282700000098,low,GS15,01,False,2024-08-06_17h46.53.309,Gratings_vis_devJG_v0.6,2024.1.5,None,2024-08-06 17h47.08.046957 -0400,
30,0,30,0,152.0442403999623,,,,,,,,,152.02852319995873,152.0609482000582,155.06144770001993,157.044225599966,157.044225599966,157.02777509996668,low,GS15,01,False,2024-08-06_17h46.53.309,Gratings_vis_devJG_v0.6,2024.1.5,None,2024-08-06 17h47.08.046957 -0400,
31,0,31,0,157.044225599966,,,,,,,,,157.0280423000222,157.06090689997654,160.0611901000375,162.04427569999825,162.04427569999825,162.02786370005924,low,GS15,01,False,2024-08-06_17h46.53.309,Gratings_vis_devJG_v0.6,2024.1.5,None,2024-08-06 17h47.08.046957 -0400,
32,0,32,0,162.04427569999825,,,,,,,,,162.02812419994734,162.06090979999863,165.06104299996514,167.04416030005086,167.04416030005086,167.02815799997188,low,GS15,01,False,2024-08-06_17h46.53.309,Gratings_vis_devJG_v0.6,2024.1.5,None,2024-08-06 17h47.08.046957 -0400,
33,0,33,0,167.04416030005086,,,,,,,,,167.02840980002657,167.06090509996284,170.0612109999638,172.044625599985,172.044625599985,172.02810710004997,low,GS15,01,False,2024-08-06_17h46.53.309,Gratings_vis_devJG_v0.6,2024.1.5,None,2024-08-06 17h47.08.046957 -0400,
34,0,34,0,172.044625599985,,,,,,,,,172.02836170000955,172.06125879997853,175.06104289996438,177.0443700000178,177.0443700000178,177.0278286000248,low,GS15,01,False,2024-08-06_17h46.53.309,Gratings_vis_devJG_v0.6,2024.1.5,None,2024-08-06 17h47.08.046957 -0400,
35,0,35,0,177.0443700000178,,,,,,,,,177.02809000003617,177.06092129996978,180.0609937000554,182.04425669997,182.04425669997,182.02776850003283,low,GS15,01,False,2024-08-06_17h46.53.309,Gratings_vis_devJG_v0.6,2024.1.5,None,2024-08-06 17h47.08.046957 -0400,
36,0,36,0,182.04425669997,,,,,,,,,182.02802830003202,182.0608253000537,185.0611777000595,187.04414300003555,187.04414300003555,187.02770059998147,low,GS15,01,False,2024-08-06_17h46.53.309,Gratings_vis_devJG_v0.6,2024.1.5,None,2024-08-06 17h47.08.046957 -0400,
37,0,37,0,187.04414300003555,,,,,,,,,187.0279507000232,187.06082879996393,190.06117100000847,192.04417350003496,192.04417350003496,192.02785910002422,low,GS15,01,False,2024-08-06_17h46.53.309,Gratings_vis_devJG_v0.6,2024.1.5,None,2024-08-06 17h47.08.046957 -0400,
38,0,38,0,192.04417350003496,,,,,,,,,192.02810710004997,192.06084609997924,195.06120240001474,197.04411579994485,197.04411579994485,197.02764350001235,low,GS15,01,False,2024-08-06_17h46.53.309,Gratings_vis_devJG_v0.6,2024.1.5,None,2024-08-06 17h47.08.046957 -0400,
39,0,39,0,197.04411579994485,,,,,,,,,197.02788980002515,197.06077650003135,200.06086129997857,202.04412560001947,202.04412560001947,202.02769629994873,low,GS15,01,False,2024-08-06_17h46.53.309,Gratings_vis_devJG_v0.6,2024.1.5,None,2024-08-06 17h47.08.046957 -0400,
40,0,40,0,202.04412560001947,,,,,,,,,202.0279612999875,202.06074600003194,205.06087609997485,207.04406620003283,207.04406620003283,207.02756920002867,low,GS15,01,False,2024-08-06_17h46.53.309,Gratings_vis_devJG_v0.6,2024.1.5,None,2024-08-06 17h47.08.046957 -0400,
41,0,41,0,207.04406620003283,,,,,,,,,207.02782379998825,207.06071600003634,210.06086710002273,212.04405170003884,212.04405170003884,212.02759119996335,low,GS15,01,False,2024-08-06_17h46.53.309,Gratings_vis_devJG_v0.6,2024.1.5,None,2024-08-06 17h47.08.046957 -0400,
42,0,42,0,212.04405170003884,,,,,,,,,212.02784850005992,212.0607403999893,215.06115500000305,217.04420849995222,217.04420849995222,217.02803309995215,low,GS15,01,False,2024-08-06_17h46.53.309,Gratings_vis_devJG_v0.6,2024.1.5,None,2024-08-06 17h47.08.046957 -0400,
43,0,43,0,217.04420849995222,,,,,,,,,217.02827610005625,217.0610033000121,220.06101299996953,222.0440118999686,222.0440118999686,222.02755270001944,low,GS15,01,False,2024-08-06_17h46.53.309,Gratings_vis_devJG_v0.6,2024.1.5,None,2024-08-06 17h47.08.046957 -0400,
44,0,44,0,222.0440118999686,,,,,,,,,222.02779710001778,222.06067190004978,225.06078109994996,227.04423869994935,227.04423869994935,227.0279955000151,low,GS15,01,False,2024-08-06_17h46.53.309,Gratings_vis_devJG_v0.6,2024.1.5,None,2024-08-06 17h47.08.046957 -0400,
45,0,45,0,227.04423869994935,,,,,,,,,227.0282531999983,227.06109390000347,230.06083570001647,232.04413449997082,232.04413449997082,232.02755190001335,low,GS15,01,False,2024-08-06_17h46.53.309,Gratings_vis_devJG_v0.6,2024.1.5,None,2024-08-06 17h47.08.046957 -0400,
46,0,46,0,232.04413449997082,,,,,,,,,232.0278070999775,232.0609179000603,235.06072519998997,237.04409430001397,237.04409430001397,237.02785129996482,low,GS15,01,False,2024-08-06_17h46.53.309,Gratings_vis_devJG_v0.6,2024.1.5,None,2024-08-06 17h47.08.046957 -0400,
47,0,47,0,237.04409430001397,,,,,,,,,237.0281021000119,237.06058449996635,240.0607006000355,242.0438610999845,242.0438610999845,242.02744039997924,low,GS15,01,False,2024-08-06_17h46.53.309,Gratings_vis_devJG_v0.6,2024.1.5,None,2024-08-06 17h47.08.046957 -0400,
48,0,48,0,242.0438610999845,,,,,,,,,242.02768800000194,242.0605385999661,245.06065120000858,247.04387000005227,247.04387000005227,247.02776179998182,low,GS15,01,False,2024-08-06_17h46.53.309,Gratings_vis_devJG_v0.6,2024.1.5,None,2024-08-06 17h47.08.046957 -0400,
49,0,49,0,247.04387000005227,,,,,,,,,247.0280052999733,247.06052339996677,250.06057460000739,252.04381429997738,252.04381429997738,252.02792130003218,low,GS15,01,False,2024-08-06_17h46.53.309,Gratings_vis_devJG_v0.6,2024.1.5,None,2024-08-06 17h47.08.046957 -0400,
50,0,50,0,252.04381429997738,,,,,,,,,252.02817619999405,252.06057580001652,255.06056879996322,257.0440829000436,257.0440829000436,257.02738290000707,low,GS15,01,False,2024-08-06_17h46.53.309,Gratings_vis_devJG_v0.6,2024.1.5,None,2024-08-06 17h47.08.046957 -0400,
51,0,51,0,257.0440829000436,,,,,,,,,257.0276583000086,257.06044739997014,260.0607293000212,262.04382140003145,262.04382140003145,262.027690500021,low,GS15,01,False,2024-08-06_17h46.53.309,Gratings_vis_devJG_v0.6,2024.1.5,None,2024-08-06 17h47.08.046957 -0400,
52,0,52,0,262.04382140003145,,,,,,,,,262.02796900004614,262.06052079994697,265.06059869995806,267.04374140000436,267.04374140000436,267.0273788999766,low,GS15,01,False,2024-08-06_17h46.53.309,Gratings_vis_devJG_v0.6,2024.1.5,None,2024-08-06 17h47.08.046957 -0400,
53,0,53,0,267.04374140000436,,,,,,,,,267.02763469994534,267.06040049996227,270.0605863999808,272.04382430005353,272.04382430005353,272.0274732999969,low,GS15,01,False,2024-08-06_17h46.53.309,Gratings_vis_devJG_v0.6,2024.1.5,None,2024-08-06 17h47.08.046957 -0400,
54,0,54,0,272.04382430005353,,,,,,,,,272.027731899987,272.0603622000199,275.0608067000285,277.04391919996124,277.04391919996124,277.02779069996905,low,GS15,01,False,2024-08-06_17h46.53.309,Gratings_vis_devJG_v0.6,2024.1.5,None,2024-08-06 17h47.08.046957 -0400,
55,0,55,0,277.04391919996124,,,,,,,,,277.0280665999744,277.06029890000354,280.06050739996135,282.0436497000046,282.0436497000046,282.02720829995815,low,GS15,01,False,2024-08-06_17h46.53.309,Gratings_vis_devJG_v0.6,2024.1.5,None,2024-08-06 17h47.08.046957 -0400,
56,0,56,0,282.0436497000046,,,,,,,,,282.0274641000433,282.06031339999754,285.0604519000044,287.0436638999963,287.0436638999963,287.0271567000309,low,GS15,01,False,2024-08-06_17h46.53.309,Gratings_vis_devJG_v0.6,2024.1.5,None,2024-08-06 17h47.08.046957 -0400,
57,0,57,0,287.0436638999963,,,,,,,,,287.02741300000343,287.0602813999867,290.0604749999475,292.0437101999996,292.0437101999996,292.0276394999819,low,GS15,01,False,2024-08-06_17h46.53.309,Gratings_vis_devJG_v0.6,2024.1.5,None,2024-08-06 17h47.08.046957 -0400,
58,0,58,0,292.0437101999996,,,,,,,,,292.02789290004876,292.06094290001784,295.06046319997404,297.04363019997254,297.04363019997254,297.0271875000326,low,GS15,01,False,2024-08-06_17h46.53.309,Gratings_vis_devJG_v0.6,2024.1.5,None,2024-08-06 17h47.08.046957 -0400,
59,0,59,0,297.04363019997254,,,,,,,,,297.0274330000393,297.06030969996937,300.0604739000555,302.04363510000985,302.04363510000985,302.02771960000973,low,GS15,01,False,2024-08-06_17h46.53.309,Gratings_vis_devJG_v0.6,2024.1.5,None,2024-08-06 17h47.08.046957 -0400,
60,0,60,0,302.04363510000985,,,,,,,,,302.02797050005756,302.06024629995227,305.06044220004696,307.0435424000025,307.0435424000025,307.0274969000602,low,GS15,01,False,2024-08-06_17h46.53.309,Gratings_vis_devJG_v0.6,2024.1.5,None,2024-08-06 17h47.08.046957 -0400,
61,0,61,0,307.0435424000025,,,,,,,,,307.0277500000084,307.060211300035,310.06039700005203,312.0436931999866,312.0436931999866,312.0271040999796,low,GS15,01,False,2024-08-06_17h46.53.309,Gratings_vis_devJG_v0.6,2024.1.5,None,2024-08-06 17h47.08.046957 -0400,
62,0,62,0,312.0436931999866,,,,,,,,,312.02736349997576,312.06049790000543,315.0604288999457,317.0434968000045,317.0434968000045,317.02710009994917,low,GS15,01,False,2024-08-06_17h46.53.309,Gratings_vis_devJG_v0.6,2024.1.5,None,2024-08-06 17h47.08.046957 -0400,
63,0,63,0,317.0434968000045,,,,,,,,,317.02735740004573,317.06018559995573,320.06039070000406,322.0435215999605,322.0435215999605,322.0274709999794,low,GS15,01,False,2024-08-06_17h46.53.309,Gratings_vis_devJG_v0.6,2024.1.5,None,2024-08-06 17h47.08.046957 -0400,
64,0,64,0,322.0435215999605,,,,,,,,,322.0277429999551,322.06038399995305,325.0603005000157,327.04344110004604,327.04344110004604,327.02747840003576,low,GS15,01,False,2024-08-06_17h46.53.309,Gratings_vis_devJG_v0.6,2024.1.5,None,2024-08-06 17h47.08.046957 -0400,
65,0,65,0,327.04344110004604,,,,,,,,,327.02772160002496,327.0601345000323,330.061352299992,332.04353879997507,332.04353879997507,332.027444700012,low,GS15,01,False,2024-08-06_17h46.53.309,Gratings_vis_devJG_v0.6,2024.1.5,None,2024-08-06 17h47.08.046957 -0400,
66,0,66,0,332.04353879997507,,,,,,,,,332.0279526000377,332.0601174000185,335.06051440001465,337.0434427000582,337.0434427000582,337.0275401000399,low,GS15,01,False,2024-08-06_17h46.53.309,Gratings_vis_devJG_v0.6,2024.1.5,None,2024-08-06 17h47.08.046957 -0400,
67,0,67,0,337.0434427000582,,,,,,,,,337.0278081999859,337.06005730002653,340.060835900018,342.04362530005164,342.04362530005164,342.02692029997706,low,GS15,01,False,2024-08-06_17h46.53.309,Gratings_vis_devJG_v0.6,2024.1.5,None,2024-08-06 17h47.08.046957 -0400,
68,0,68,0,342.04362530005164,,,,,,,,,342.02716249995865,342.06004560005385,345.0602535000071,347.043733999948,347.043733999948,347.02696299995296,low,GS15,01,False,2024-08-06_17h46.53.309,Gratings_vis_devJG_v0.6,2024.1.5,None,2024-08-06 17h47.08.046957 -0400,
69,0,69,0,347.043733999948,,,,,,,,,347.027215900016,347.06005179998465,350.06021280004643,352.0441495999694,352.0441495999694,352.0269048999762,low,GS15,01,False,2024-08-06_17h46.53.309,Gratings_vis_devJG_v0.6,2024.1.5,None,2024-08-06 17h47.08.046957 -0400,
70,0,70,0,352.0441495999694,,,,,,,,,352.0271562000271,352.06154669995885,355.06015499995556,357.0435407999903,357.0435407999903,357.0269313000608,low,GS15,01,False,2024-08-06_17h46.53.309,Gratings_vis_devJG_v0.6,2024.1.5,None,2024-08-06 17h47.08.046957 -0400,
71,0,71,0,357.0435407999903,,,,,,,,,357.0271806999808,357.0607166000409,360.0601758999983,362.0433068999555,362.0433068999555,362.0268830000423,low,GS15,01,False,2024-08-06_17h46.53.309,Gratings_vis_devJG_v0.6,2024.1.5,None,2024-08-06 17h47.08.046957 -0400,
72,0,72,0,362.0433068999555,,,,,,,,,362.02714669995476,362.06095479999203,365.060093899956,367.04319480003323,367.04319480003323,367.02721680002287,low,GS15,01,False,2024-08-06_17h46.53.309,Gratings_vis_devJG_v0.6,2024.1.5,None,2024-08-06 17h47.08.046957 -0400,
73,0,73,0,367.04319480003323,,,,,,,,,367.02747169998474,367.05990540003404,370.0600678999908,372.0431847999571,372.0431847999571,372.02851570001803,low,GS15,01,False,2024-08-06_17h46.53.309,Gratings_vis_devJG_v0.6,2024.1.5,None,2024-08-06 17h47.08.046957 -0400,
74,0,74,0,372.0431847999571,,,,,,,,,372.0287606000202,372.05986629996914,375.06007819995284,377.0433242999716,377.0433242999716,377.0286349999951,low,GS15,01,False,2024-08-06_17h46.53.309,Gratings_vis_devJG_v0.6,2024.1.5,None,2024-08-06 17h47.08.046957 -0400,
75,0,75,0,377.0433242999716,,,,,,,,,377.0288905999623,377.0598361999728,380.0600032999646,382.04328660003375,382.04328660003375,382.02681119996123,low,GS15,01,False,2024-08-06_17h46.53.309,Gratings_vis_devJG_v0.6,2024.1.5,None,2024-08-06 17h47.08.046957 -0400,
76,0,76,0,382.04328660003375,,,,,,,,,382.02705000003334,382.06003910000436,385.06025340000633,387.04317349998746,387.04317349998746,387.0267077999888,low,GS15,01,False,2024-08-06_17h46.53.309,Gratings_vis_devJG_v0.6,2024.1.5,None,2024-08-06 17h47.08.046957 -0400,
77,0,77,0,387.04317349998746,,,,,,,,,387.02695169998333,387.059953100048,390.06019570003264,392.04320610000286,392.04320610000286,392.02676180005074,low,GS15,01,False,2024-08-06_17h46.53.309,Gratings_vis_devJG_v0.6,2024.1.5,None,2024-08-06 17h47.08.046957 -0400,
78,0,78,0,392.04320610000286,,,,,,,,,392.0270246999571,392.0598378999857,395.0616648000432,397.04328970005736,397.04328970005736,397.02715400001034,low,GS15,01,False,2024-08-06_17h46.53.309,Gratings_vis_devJG_v0.6,2024.1.5,None,2024-08-06 17h47.08.046957 -0400,
79,0,79,0,397.04328970005736,,,,,,,,,397.02741109998897,397.0599742999766,400.0607084999792,402.04316580004524,402.04316580004524,402.0266321999952,low,GS15,01,False,2024-08-06_17h46.53.309,Gratings_vis_devJG_v0.6,2024.1.5,None,2024-08-06 17h47.08.046957 -0400,
80,0,80,0,402.04316580004524,,,,,,,,,402.026884800056,402.05982580001,405.06097160000354,407.0430163999554,407.0430163999554,407.0267616000492,low,GS15,01,False,2024-08-06_17h46.53.309,Gratings_vis_devJG_v0.6,2024.1.5,None,2024-08-06 17h47.08.046957 -0400,
81,0,81,0,407.0430163999554,,,,,,,,,407.02702130004764,407.0596594000235,410.0612720999634,412.04330939997453,412.04330939997453,412.02671390003525,low,GS15,01,False,2024-08-06_17h46.53.309,Gratings_vis_devJG_v0.6,2024.1.5,None,2024-08-06 17h47.08.046957 -0400,
82,0,82,0,412.04330939997453,,,,,,,,,412.0269706000108,412.0604248000309,415.0615649999818,417.04343149997294,417.04343149997294,417.0269170999527,low,GS15,01,False,2024-08-06_17h46.53.309,Gratings_vis_devJG_v0.6,2024.1.5,None,2024-08-06 17h47.08.046957 -0400,
83,0,83,0,417.04343149997294,,,,,,,,,417.0271719000302,417.0601563999662,420.0618564999895,422.04357590002473,422.04357590002473,422.0272264999803,low,GS15,01,False,2024-08-06_17h46.53.309,Gratings_vis_devJG_v0.6,2024.1.5,None,2024-08-06 17h47.08.046957 -0400,
84,0,84,0,422.04357590002473,,,,,,,,,422.02748639998026,422.06026779999956,425.06221500004176,427.04391320003197,427.04391320003197,427.02762609999627,low,GS15,01,False,2024-08-06_17h46.53.309,Gratings_vis_devJG_v0.6,2024.1.5,None,2024-08-06 17h47.08.046957 -0400,
85,0,85,0,427.04391320003197,,,,,,,,,427.02788199996576,427.06058010004926,430.0624650999671,432.04285269998945,432.04285269998945,432.02815449994523,low,GS15,01,False,2024-08-06_17h46.53.309,Gratings_vis_devJG_v0.6,2024.1.5,None,2024-08-06 17h47.08.046957 -0400,
86,0,86,0,432.04285269998945,,,,,,,,,432.02840930002276,432.0609011000488,435.06000129994936,437.0429238999495,437.0429238999495,437.02652239997406,low,GS15,01,False,2024-08-06_17h46.53.309,Gratings_vis_devJG_v0.6,2024.1.5,None,2024-08-06 17h47.08.046957 -0400,
87,0,87,0,437.0429238999495,,,,,,,,,437.0267672999762,437.0595939999912,440.0600806999719,442.04277039994486,442.04277039994486,442.02667479997035,low,GS15,01,False,2024-08-06_17h46.53.309,Gratings_vis_devJG_v0.6,2024.1.5,None,2024-08-06 17h47.08.046957 -0400,
88,0,88,0,442.04277039994486,,,,,,,,,442.0269293000456,442.0594885000028,445.0601352000376,447.0428657999728,447.0428657999728,447.0263206999516,low,GS15,01,False,2024-08-06_17h46.53.309,Gratings_vis_devJG_v0.6,2024.1.5,None,2024-08-06 17h47.08.046957 -0400,
89,0,89,0,447.0428657999728,,,,,,,,,447.0266027000034,447.05951469996944,450.0597136999713,452.0426789999474,452.0426789999474,452.0262599999551,low,GS15,01,False,2024-08-06_17h46.53.309,Gratings_vis_devJG_v0.6,2024.1.5,None,2024-08-06 17h47.08.046957 -0400,
90,0,90,0,452.0426789999474,,,,,,,,,452.0265993999783,452.05936439998914,455.05993230000604,457.04279289999977,457.04279289999977,457.0268243999453,low,GS15,01,False,2024-08-06_17h46.53.309,Gratings_vis_devJG_v0.6,2024.1.5,None,2024-08-06 17h47.08.046957 -0400,
91,0,91,0,457.04279289999977,,,,,,,,,457.0270935000153,457.0594081999734,460.05960090004373,462.0426327000605,462.0426327000605,462.0262632999802,low,GS15,01,False,2024-08-06_17h46.53.309,Gratings_vis_devJG_v0.6,2024.1.5,None,2024-08-06 17h47.08.046957 -0400,
92,0,92,0,462.0426327000605,,,,,,,,,462.02651520003565,462.0593981000129,465.05978170002345,467.04290370002855,467.04290370002855,467.0262037999928,low,GS15,01,False,2024-08-06_17h46.53.309,Gratings_vis_devJG_v0.6,2024.1.5,None,2024-08-06 17h47.08.046957 -0400,
93,0,93,0,467.04290370002855,,,,,,,,,467.02645620005205,467.0593933999771,470.0598881000187,472.04277589998674,472.04277589998674,472.02696249994915,low,GS15,01,False,2024-08-06_17h46.53.309,Gratings_vis_devJG_v0.6,2024.1.5,None,2024-08-06 17h47.08.046957 -0400,
94,0,94,0,472.04277589998674,,,,,,,,,472.0272157000145,472.05998000002,475.05973770003766,477.0427683000453,477.0427683000453,477.0265974999638,low,GS15,01,False,2024-08-06_17h46.53.309,Gratings_vis_devJG_v0.6,2024.1.5,None,2024-08-06 17h47.08.046957 -0400,
95,0,95,0,477.0427683000453,,,,,,,,,477.02685340004973,477.0593323999783,480.0594644000521,482.04267550003715,482.04267550003715,482.02621999999974,low,GS15,01,False,2024-08-06_17h46.53.309,Gratings_vis_devJG_v0.6,2024.1.5,None,2024-08-06 17h47.08.046957 -0400,
96,0,96,0,482.04267550003715,,,,,,,,,482.0264648000011,482.0593434999464,485.0595290999627,487.04255719995126,487.04255719995126,487.02612709999084,low,GS15,01,False,2024-08-06_17h46.53.309,Gratings_vis_devJG_v0.6,2024.1.5,None,2024-08-06 17h47.08.046957 -0400,
97,0,97,0,487.04255719995126,,,,,,,,,487.02636589994654,487.05928879999556,490.0597557000583,492.0426766000455,492.0426766000455,492.0264868000522,low,GS15,01,False,2024-08-06_17h46.53.309,Gratings_vis_devJG_v0.6,2024.1.5,None,2024-08-06 17h47.08.046957 -0400,
98,0,98,0,492.0426766000455,,,,,,,,,492.0267595000332,492.0593752999557,495.0593857000349,497.0425652000122,497.0425652000122,497.02611880004406,low,GS15,01,False,2024-08-06_17h46.53.309,Gratings_vis_devJG_v0.6,2024.1.5,None,2024-08-06 17h47.08.046957 -0400,
99,0,99,0,497.0425652000122,,,,,,,,,497.0263733000029,497.05922619998455,500.0593583000591,502.0425382000394,502.0425382000394,502.02647319994867,low,GS15,01,False,2024-08-06_17h46.53.309,Gratings_vis_devJG_v0.6,2024.1.5,None,2024-08-06 17h47.08.046957 -0400,
100,0,100,0,502.0425382000394,,,,,,,,,502.02671650005504,502.05918380001094,505.0593013999751,507.04254100006074,507.04254100006074,507.0260909999488,low,GS15,01,False,2024-08-06_17h46.53.309,Gratings_vis_devJG_v0.6,2024.1.5,None,2024-08-06 17h47.08.046957 -0400,
101,0,101,0,507.04254100006074,,,,,,,,,507.02634340000805,507.059188800049,510.05932999996,512.0424863999942,512.0424863999942,512.0260317999637,low,GS15,01,False,2024-08-06_17h46.53.309,Gratings_vis_devJG_v0.6,2024.1.5,None,2024-08-06 17h47.08.046957 -0400,
102,0,102,0,512.0424863999942,,,,,,,,,512.0262903999537,512.0592031000415,515.0593306999654,517.0424363999628,517.0424363999628,517.026026400039,low,GS15,01,False,2024-08-06_17h46.53.309,Gratings_vis_devJG_v0.6,2024.1.5,None,2024-08-06 17h47.08.046957 -0400,
103,0,103,0,517.0424363999628,,,,,,,,,517.0262730000541,517.0591574000427,520.0592449000105,522.0424421000062,522.0424421000062,522.0260156999575,low,GS15,01,False,2024-08-06_17h46.53.309,Gratings_vis_devJG_v0.6,2024.1.5,None,2024-08-06 17h47.08.046957 -0400,
104,0,104,0,522.0424421000062,,,,,,,,,522.0263198999455,522.0591010999633,525.0592661000555,527.042424299987,527.042424299987,527.0263184000505,low,GS15,01,False,2024-08-06_17h46.53.309,Gratings_vis_devJG_v0.6,2024.1.5,None,2024-08-06 17h47.08.046957 -0400,
105,0,105,0,527.042424299987,,,,,,,,,527.0265642000595,527.059069699957,530.0594106999924,532.0425720999483,532.0425720999483,532.0261281999992,low,GS15,01,False,2024-08-06_17h46.53.309,Gratings_vis_devJG_v0.6,2024.1.5,None,2024-08-06 17h47.08.046957 -0400,
106,0,106,0,532.0425720999483,,,,,,,,,532.026406000019,532.0598206999712,535.0592368999496,537.0424920000369,537.0424920000369,537.0260517999995,low,GS15,01,False,2024-08-06_17h46.53.309,Gratings_vis_devJG_v0.6,2024.1.5,None,2024-08-06 17h47.08.046957 -0400,
107,0,107,0,537.0424920000369,,,,,,,,,537.0263061999576,537.0590747999959,540.0593669000082,542.0423296999652,542.0423296999652,542.0262596999528,low,GS15,01,False,2024-08-06_17h46.53.309,Gratings_vis_devJG_v0.6,2024.1.5,None,2024-08-06 17h47.08.046957 -0400,
108,0,108,0,542.0423296999652,,,,,,,,,542.0265130000189,542.0590205000481,545.0594567999942,547.0422674999572,547.0422674999572,547.0259079999523,low,GS15,01,False,2024-08-06_17h46.53.309,Gratings_vis_devJG_v0.6,2024.1.5,None,2024-08-06 17h47.08.046957 -0400,
109,0,109,0,547.0422674999572,,,,,,,,,547.0261676999507,547.0589689000044,550.0591087000212,552.0422890000045,552.0422890000045,552.0262501999969,low,GS15,01,False,2024-08-06_17h46.53.309,Gratings_vis_devJG_v0.6,2024.1.5,None,2024-08-06 17h47.08.046957 -0400,
110,0,110,0,552.0422890000045,,,,,,,,,552.0264901999617,552.0589657999808,555.0590704999631,557.0422622000333,557.0422622000333,557.0258585000411,low,GS15,01,False,2024-08-06_17h46.53.309,Gratings_vis_devJG_v0.6,2024.1.5,None,2024-08-06 17h47.08.046957 -0400,
111,0,111,0,557.0422622000333,,,,,,,,,557.0261297000106,557.0589859000174,560.0590980000561,562.0422437000088,562.0422437000088,562.0257807000307,low,GS15,01,False,2024-08-06_17h46.53.309,Gratings_vis_devJG_v0.6,2024.1.5,None,2024-08-06 17h47.08.046957 -0400,
112,0,112,0,562.0422437000088,,,,,,,,,562.0260321999667,562.0590165000176,565.0594407999888,567.0422164000338,567.0422164000338,567.0257713999599,low,GS15,01,False,2024-08-06_17h46.53.309,Gratings_vis_devJG_v0.6,2024.1.5,None,2024-08-06 17h47.08.046957 -0400,
113,0,113,0,567.0422164000338,,,,,,,,,567.026021800004,567.0588990000542,570.0594658999471,572.0422054999508,572.0422054999508,572.025766500039,low,GS15,01,False,2024-08-06_17h46.53.309,Gratings_vis_devJG_v0.6,2024.1.5,None,2024-08-06 17h47.08.046957 -0400,
114,0,114,0,572.0422054999508,,,,,,,,,572.0260130000534,572.0588730999734,575.0591043999884,577.0421456999611,577.0421456999611,577.0261195000494,low,GS15,01,False,2024-08-06_17h46.53.309,Gratings_vis_devJG_v0.6,2024.1.5,None,2024-08-06 17h47.08.046957 -0400,
115,0,115,0,577.0421456999611,,,,,,,,,577.0263656000607,577.0588754999917,580.0589309999486,582.0422829999588,582.0422829999588,582.0257199000334,low,GS15,01,False,2024-08-06_17h46.53.309,Gratings_vis_devJG_v0.6,2024.1.5,None,2024-08-06 17h47.08.046957 -0400,
116,0,116,0,582.0422829999588,,,,,,,,,582.0259874999756,582.0587849000003,585.0589691000059,587.0421167999739,587.0421167999739,587.025701800012,low,GS15,01,False,2024-08-06_17h46.53.309,Gratings_vis_devJG_v0.6,2024.1.5,None,2024-08-06 17h47.08.046957 -0400,
117,0,117,0,587.0421167999739,,,,,,,,,587.0259685999481,587.0587576000253,590.0590722999768,592.0421992000192,592.0421992000192,592.0259527000599,low,GS15,01,False,2024-08-06_17h46.53.309,Gratings_vis_devJG_v0.6,2024.1.5,None,2024-08-06 17h47.08.046957 -0400,
118,0,118,0,592.0421992000192,,,,,,,,,592.0262113000499,592.0590415999759,595.0588679000502,597.0420852999669,597.0420852999669,597.0256106000161,low,GS15,01,False,2024-08-06_17h46.53.309,Gratings_vis_devJG_v0.6,2024.1.5,None,2024-08-06 17h47.08.046957 -0400,
119,0,119,0,597.0420852999669,,,,,,,,,597.0258697000099,597.0587611000519,600.0588583999779,602.0624715000158,602.0624715000158,602.0259777000174,low,GS15,01,False,2024-08-06_17h46.53.309,Gratings_vis_devJG_v0.6,2024.1.5,None,2024-08-06 17h47.08.046957 -0400,
