trials.thisRepN,trials.thisTrialN,trials.thisN,trials.thisIndex,thisRow.t,notes,nidaqTrigger.started,text_waiting_message.started,key_resp.started,nidaqTrigger.stopped,key_resp.keys,key_resp.rt,key_resp.duration,display_gratings.started,stim_grayScreen.started,stim_grating.started,stim_grayScreen.stopped,stim_grating.stopped,display_gratings.stopped,Protocol ID,Subject ID,Session ID,Wait for Trigger,date,expName,psychopyVersion,frameRate,expStart,
,,,,,,0.005566100007854402,0.01619090000167489,0.01619090000167489,3.151376999914646,space,3.11921999999322,None,,,,,,,sal,SB05,01,False,2024-08-07_14h44.06.331,Gratings_vis_devJG_v0.6,2024.1.5,None,2024-08-07 14h44.16.720524 -0400,
0,0,0,0,3.190539599978365,,,,,,,,,3.189033699920401,3.190539599978365,6.199080299935304,8.182542199967429,8.182542199967429,8.166342799901031,sal,SB05,01,False,2024-08-07_14h44.06.331,Gratings_vis_devJG_v0.6,2024.1.5,None,2024-08-07 14h44.16.720524 -0400,
1,0,1,0,8.182542199967429,,,,,,,,,8.166603799909353,8.199230199912563,11.19948700000532,13.182816099957563,13.182816099957563,13.166399399982765,sal,SB05,01,False,2024-08-07_14h44.06.331,Gratings_vis_devJG_v0.6,2024.1.5,None,2024-08-07 14h44.16.720524 -0400,
2,0,2,0,13.182816099957563,,,,,,,,,13.16665509995073,13.199696699972264,16.19994379999116,18.182851399993524,18.182851399993524,18.166461599990726,sal,SB05,01,False,2024-08-07_14h44.06.331,Gratings_vis_devJG_v0.6,2024.1.5,None,2024-08-07 14h44.16.720524 -0400,
3,0,3,0,18.182851399993524,,,,,,,,,18.166714199935086,18.199466199963354,21.199580399901606,23.18298749998212,23.18298749998212,23.167047099908814,sal,SB05,01,False,2024-08-07_14h44.06.331,Gratings_vis_devJG_v0.6,2024.1.5,None,2024-08-07 14h44.16.720524 -0400,
4,0,4,0,23.18298749998212,,,,,,,,,23.167308099917136,23.199547700001858,26.19994899991434,28.182748599909246,28.182748599909246,28.166856899973936,sal,SB05,01,False,2024-08-07_14h44.06.331,Gratings_vis_devJG_v0.6,2024.1.5,None,2024-08-07 14h44.16.720524 -0400,
5,0,5,0,28.182748599909246,,,,,,,,,28.167115699965507,28.199407699983567,31.19957209995482,33.18272049992811,33.18272049992811,33.1663555999985,sal,SB05,01,False,2024-08-07_14h44.06.331,Gratings_vis_devJG_v0.6,2024.1.5,None,2024-08-07 14h44.16.720524 -0400,
6,0,6,0,33.18272049992811,,,,,,,,,33.166618699906394,33.199376399978064,36.199723699945025,38.1828428999288,38.1828428999288,38.16628100001253,sal,SB05,01,False,2024-08-07_14h44.06.331,Gratings_vis_devJG_v0.6,2024.1.5,None,2024-08-07 14h44.16.720524 -0400,
7,0,7,0,38.1828428999288,,,,,,,,,38.16656159993727,38.19958499993663,41.19964489992708,43.18267989996821,43.18267989996821,43.16623169998638,sal,SB05,01,False,2024-08-07_14h44.06.331,Gratings_vis_devJG_v0.6,2024.1.5,None,2024-08-07 14h44.16.720524 -0400,
8,0,8,0,43.18267989996821,,,,,,,,,43.16650349996053,43.199323599925265,46.19944279990159,48.18270549993031,48.18270549993031,48.16640270000789,sal,SB05,01,False,2024-08-07_14h44.06.331,Gratings_vis_devJG_v0.6,2024.1.5,None,2024-08-07 14h44.16.720524 -0400,
9,0,9,0,48.18270549993031,,,,,,,,,48.16665729996748,48.19951349997427,51.19979839993175,53.18259889993351,53.18259889993351,53.16623719991185,sal,SB05,01,False,2024-08-07_14h44.06.331,Gratings_vis_devJG_v0.6,2024.1.5,None,2024-08-07 14h44.16.720524 -0400,
10,0,10,0,53.18259889993351,,,,,,,,,53.1664851999376,53.199280499946326,56.19965789990965,58.1825903999852,58.1825903999852,58.1662706999341,sal,SB05,01,False,2024-08-07_14h44.06.331,Gratings_vis_devJG_v0.6,2024.1.5,None,2024-08-07 14h44.16.720524 -0400,
11,0,11,0,58.1825903999852,,,,,,,,,58.16653049993329,58.19949209992774,61.19937809999101,63.18261869996786,63.18261869996786,63.16618359996937,sal,SB05,01,False,2024-08-07_14h44.06.331,Gratings_vis_devJG_v0.6,2024.1.5,None,2024-08-07 14h44.16.720524 -0400,
12,0,12,0,63.18261869996786,,,,,,,,,63.16643659991678,63.19922979990952,66.19938709994312,68.18254619999789,68.18254619999789,68.16615649999585,sal,SB05,01,False,2024-08-07_14h44.06.331,Gratings_vis_devJG_v0.6,2024.1.5,None,2024-08-07 14h44.16.720524 -0400,
13,0,13,0,68.18254619999789,,,,,,,,,68.16641049995087,68.19931139994878,71.19940899999347,73.18248550000135,73.18248550000135,73.16651899996214,sal,SB05,01,False,2024-08-07_14h44.06.331,Gratings_vis_devJG_v0.6,2024.1.5,None,2024-08-07 14h44.16.720524 -0400,
14,0,14,0,73.18248550000135,,,,,,,,,73.16677579993848,73.19925689999945,76.19924479990732,78.18252169992775,78.18252169992775,78.16604359995108,sal,SB05,01,False,2024-08-07_14h44.06.331,Gratings_vis_devJG_v0.6,2024.1.5,None,2024-08-07 14h44.16.720524 -0400,
15,0,15,0,78.18252169992775,,,,,,,,,78.16629689990077,78.19915209989995,81.19928890001029,83.18253619992174,83.18253619992174,83.16661079996265,sal,SB05,01,False,2024-08-07_14h44.06.331,Gratings_vis_devJG_v0.6,2024.1.5,None,2024-08-07 14h44.16.720524 -0400,
16,0,16,0,83.18253619992174,,,,,,,,,83.16687729989644,83.1991480999859,86.19927749992348,88.18252459994983,88.18252459994983,88.16665229992941,sal,SB05,01,False,2024-08-07_14h44.06.331,Gratings_vis_devJG_v0.6,2024.1.5,None,2024-08-07 14h44.16.720524 -0400,
17,0,17,0,88.18252459994983,,,,,,,,,88.16691229993012,88.1991273999447,91.19946359994356,93.18265339999925,93.18265339999925,93.1661687999731,sal,SB05,01,False,2024-08-07_14h44.06.331,Gratings_vis_devJG_v0.6,2024.1.5,None,2024-08-07 14h44.16.720524 -0400,
18,0,18,0,93.18265339999925,,,,,,,,,93.16643429989927,93.19915469991975,96.1995961999055,98.18252589995973,98.18252589995973,98.1665345999645,sal,SB05,01,False,2024-08-07_14h44.06.331,Gratings_vis_devJG_v0.6,2024.1.5,None,2024-08-07 14h44.16.720524 -0400,
19,0,19,0,98.18252589995973,,,,,,,,,98.16678809991572,98.19913009996526,101.19922349997796,103.18249329994433,103.18249329994433,103.16602909995709,sal,SB05,01,False,2024-08-07_14h44.06.331,Gratings_vis_devJG_v0.6,2024.1.5,None,2024-08-07 14h44.16.720524 -0400,
20,0,20,0,103.18249329994433,,,,,,,,,103.16631080000661,103.19906379992608,106.19934229995124,108.18247229990084,108.18247229990084,108.1664217999205,sal,SB05,01,False,2024-08-07_14h44.06.331,Gratings_vis_devJG_v0.6,2024.1.5,None,2024-08-07 14h44.16.720524 -0400,
21,0,21,0,108.18247229990084,,,,,,,,,108.16668379993644,108.19906669994816,111.19914139993489,113.18238149990793,113.18238149990793,113.16610579995904,sal,SB05,01,False,2024-08-07_14h44.06.331,Gratings_vis_devJG_v0.6,2024.1.5,None,2024-08-07 14h44.16.720524 -0400,
22,0,22,0,113.18238149990793,,,,,,,,,113.16638389998116,113.19901619991288,116.19911039993167,118.18248519999906,118.18248519999906,118.16646279999986,sal,SB05,01,False,2024-08-07_14h44.06.331,Gratings_vis_devJG_v0.6,2024.1.5,None,2024-08-07 14h44.16.720524 -0400,
23,0,23,0,118.18248519999906,,,,,,,,,118.16672400000971,118.1989978000056,121.19908089993987,123.18234179995488,123.18234179995488,123.16623089998029,sal,SB05,01,False,2024-08-07_14h44.06.331,Gratings_vis_devJG_v0.6,2024.1.5,None,2024-08-07 14h44.16.720524 -0400,
24,0,24,0,123.18234179995488,,,,,,,,,123.16650829999708,123.19915619993117,126.19908779999241,128.18225929990876,128.18225929990876,128.1666256999597,sal,SB05,01,False,2024-08-07_14h44.06.331,Gratings_vis_devJG_v0.6,2024.1.5,None,2024-08-07 14h44.16.720524 -0400,
25,0,25,0,128.18225929990876,,,,,,,,,128.16689049999695,128.19892989995424,131.19907879992388,133.18225760001224,133.18225760001224,133.16592329996638,sal,SB05,01,False,2024-08-07_14h44.06.331,Gratings_vis_devJG_v0.6,2024.1.5,None,2024-08-07 14h44.16.720524 -0400,
26,0,26,0,133.18225760001224,,,,,,,,,133.16617199999746,133.1989483999787,136.19908709998708,138.18279200000688,138.18279200000688,138.16632540000137,sal,SB05,01,False,2024-08-07_14h44.06.331,Gratings_vis_devJG_v0.6,2024.1.5,None,2024-08-07 14h44.16.720524 -0400,
27,0,27,0,138.18279200000688,,,,,,,,,138.16657489992213,138.19920259993523,141.19911589997355,143.18226209993009,143.18226209993009,143.1658676000079,sal,SB05,01,False,2024-08-07_14h44.06.331,Gratings_vis_devJG_v0.6,2024.1.5,None,2024-08-07 14h44.16.720524 -0400,
28,0,28,0,143.18226209993009,,,,,,,,,143.16611879994161,143.19898749992717,146.19901729992125,148.18214479996823,148.18214479996823,148.1658965999959,sal,SB05,01,False,2024-08-07_14h44.06.331,Gratings_vis_devJG_v0.6,2024.1.5,None,2024-08-07 14h44.16.720524 -0400,
29,0,29,0,148.18214479996823,,,,,,,,,148.166155599989,148.1988471999066,151.2005922999233,153.18216689990368,153.18216689990368,153.1658676000079,sal,SB05,01,False,2024-08-07_14h44.06.331,Gratings_vis_devJG_v0.6,2024.1.5,None,2024-08-07 14h44.16.720524 -0400,
30,0,30,0,153.18216689990368,,,,,,,,,153.16613819997292,153.1989741999423,156.19902790000197,158.18210919992998,158.18210919992998,158.16666160000023,sal,SB05,01,False,2024-08-07_14h44.06.331,Gratings_vis_devJG_v0.6,2024.1.5,None,2024-08-07 14h44.16.720524 -0400,
31,0,31,0,158.18210919992998,,,,,,,,,158.16692539991345,158.1987470999593,161.19902229995932,163.1821662998991,163.1821662998991,163.16613649995998,sal,SB05,01,False,2024-08-07_14h44.06.331,Gratings_vis_devJG_v0.6,2024.1.5,None,2024-08-07 14h44.16.720524 -0400,
32,0,32,0,163.1821662998991,,,,,,,,,163.1663961999584,163.19882689998485,166.1989615999628,168.18222059996333,168.18222059996333,168.165834799991,sal,SB05,01,False,2024-08-07_14h44.06.331,Gratings_vis_devJG_v0.6,2024.1.5,None,2024-08-07 14h44.16.720524 -0400,
33,0,33,0,168.18222059996333,,,,,,,,,168.16608559992164,168.19927729992196,171.19890550000127,173.18213569989894,173.18213569989894,173.16622379992623,sal,SB05,01,False,2024-08-07_14h44.06.331,Gratings_vis_devJG_v0.6,2024.1.5,None,2024-08-07 14h44.16.720524 -0400,
34,0,34,0,173.18213569989894,,,,,,,,,173.1665027999552,173.19945309998002,176.1991392999189,178.18210719991475,178.18210719991475,178.1657335999189,sal,SB05,01,False,2024-08-07_14h44.06.331,Gratings_vis_devJG_v0.6,2024.1.5,None,2024-08-07 14h44.16.720524 -0400,
35,0,35,0,178.18210719991475,,,,,,,,,178.16598239995074,178.19877769995946,181.1990039999364,183.18195629992988,183.18195629992988,183.16556259989738,sal,SB05,01,False,2024-08-07_14h44.06.331,Gratings_vis_devJG_v0.6,2024.1.5,None,2024-08-07 14h44.16.720524 -0400,
36,0,36,0,183.18195629992988,,,,,,,,,183.16581529995892,183.19866749993525,186.19880469993223,188.1820467999205,188.1820467999205,188.16692799993325,sal,SB05,01,False,2024-08-07_14h44.06.331,Gratings_vis_devJG_v0.6,2024.1.5,None,2024-08-07 14h44.16.720524 -0400,
37,0,37,0,188.1820467999205,,,,,,,,,188.16717119992245,188.19869749993086,191.19890759990085,193.18190829991363,193.18190829991363,193.16649420000613,sal,SB05,01,False,2024-08-07_14h44.06.331,Gratings_vis_devJG_v0.6,2024.1.5,None,2024-08-07 14h44.16.720524 -0400,
38,0,38,0,193.18190829991363,,,,,,,,,193.16674759995658,193.19886329991277,196.2005389999831,198.182101399987,198.182101399987,198.16709259990603,sal,SB05,01,False,2024-08-07_14h44.06.331,Gratings_vis_devJG_v0.6,2024.1.5,None,2024-08-07 14h44.16.720524 -0400,
39,0,39,0,198.182101399987,,,,,,,,,198.16733839991502,198.19872139999643,201.20035589998588,203.18211039993912,203.18211039993912,203.1658802999882,sal,SB05,01,False,2024-08-07_14h44.06.331,Gratings_vis_devJG_v0.6,2024.1.5,None,2024-08-07 14h44.16.720524 -0400,
40,0,40,0,203.18211039993912,,,,,,,,,203.16614149999805,203.19867779989727,206.2008134999778,208.18211739999242,208.18211739999242,208.16549939999823,sal,SB05,01,False,2024-08-07_14h44.06.331,Gratings_vis_devJG_v0.6,2024.1.5,None,2024-08-07 14h44.16.720524 -0400,
41,0,41,0,208.18211739999242,,,,,,,,,208.16576399991754,208.19865069992375,211.20095099997707,213.18187229998875,213.18187229998875,213.16594719991554,sal,SB05,01,False,2024-08-07_14h44.06.331,Gratings_vis_devJG_v0.6,2024.1.5,None,2024-08-07 14h44.16.720524 -0400,
42,0,42,0,213.18187229998875,,,,,,,,,213.16619209991768,213.19848009990528,216.2013632999733,218.18178129999433,218.18178129999433,218.16554610000458,sal,SB05,01,False,2024-08-07_14h44.06.331,Gratings_vis_devJG_v0.6,2024.1.5,None,2024-08-07 14h44.16.720524 -0400,
43,0,43,0,218.18178129999433,,,,,,,,,218.165796999936,218.19881159998477,221.2009361999808,223.18202849989757,223.18202849989757,223.16576379991602,sal,SB05,01,False,2024-08-07_14h44.06.331,Gratings_vis_devJG_v0.6,2024.1.5,None,2024-08-07 14h44.16.720524 -0400,
44,0,44,0,223.18202849989757,,,,,,,,,223.16602399991825,223.19854789995588,226.20177379995584,228.18178179999813,228.18178179999813,228.16536729992367,sal,SB05,01,False,2024-08-07_14h44.06.331,Gratings_vis_devJG_v0.6,2024.1.5,None,2024-08-07 14h44.16.720524 -0400,
45,0,45,0,228.18178179999813,,,,,,,,,228.16561399993952,228.1995939000044,231.19988669990562,233.18175409990363,233.18175409990363,233.16535009990912,sal,SB05,01,False,2024-08-07_14h44.06.331,Gratings_vis_devJG_v0.6,2024.1.5,None,2024-08-07 14h44.16.720524 -0400,
46,0,46,0,233.18175409990363,,,,,,,,,233.16559459990822,233.1990433000028,236.20014929992612,238.18216779991053,238.18216779991053,238.16554069996346,sal,SB05,01,False,2024-08-07_14h44.06.331,Gratings_vis_devJG_v0.6,2024.1.5,None,2024-08-07 14h44.16.720524 -0400,
47,0,47,0,238.18216779991053,,,,,,,,,238.16579949995503,238.19871799997054,241.2053313999204,243.1823220999213,243.1823220999213,243.16587839997374,sal,SB05,01,False,2024-08-07_14h44.06.331,Gratings_vis_devJG_v0.6,2024.1.5,None,2024-08-07 14h44.16.720524 -0400,
48,0,48,0,243.1823220999213,,,,,,,,,243.16614099999424,243.19849109998904,246.2023523999378,248.18247539992444,248.18247539992444,248.16637879994232,sal,SB05,01,False,2024-08-07_14h44.06.331,Gratings_vis_devJG_v0.6,2024.1.5,None,2024-08-07 14h44.16.720524 -0400,
49,0,49,0,248.18247539992444,,,,,,,,,248.16662479995284,248.19852959993295,251.1985602999339,253.18277189997025,253.18277189997025,253.16674279992003,sal,SB05,01,False,2024-08-07_14h44.06.331,Gratings_vis_devJG_v0.6,2024.1.5,None,2024-08-07 14h44.16.720524 -0400,
50,0,50,0,253.18277189997025,,,,,,,,,253.16699789999984,253.1989226998994,256.198788199923,258.18156619998626,258.18156619998626,258.1651837999234,sal,SB05,01,False,2024-08-07_14h44.06.331,Gratings_vis_devJG_v0.6,2024.1.5,None,2024-08-07 14h44.16.720524 -0400,
51,0,51,0,258.18156619998626,,,,,,,,,258.16556449991185,258.1986004000064,261.1989144999534,263.1815275999252,263.1815275999252,263.16558729996905,sal,SB05,01,False,2024-08-07_14h44.06.331,Gratings_vis_devJG_v0.6,2024.1.5,None,2024-08-07 14h44.16.720524 -0400,
52,0,52,0,263.1815275999252,,,,,,,,,263.16598239995074,263.1987338999752,266.20372659992427,268.1815502999816,268.1815502999816,268.16508299997076,sal,SB05,01,False,2024-08-07_14h44.06.331,Gratings_vis_devJG_v0.6,2024.1.5,None,2024-08-07 14h44.16.720524 -0400,
53,0,53,0,268.1815502999816,,,,,,,,,268.16534409997985,268.1982248999411,271.19862019992433,273.1815365999937,273.1815365999937,273.1651152999839,sal,SB05,01,False,2024-08-07_14h44.06.331,Gratings_vis_devJG_v0.6,2024.1.5,None,2024-08-07 14h44.16.720524 -0400,
54,0,54,0,273.1815365999937,,,,,,,,,273.16537409997545,273.1981477999361,276.1986324999016,278.18138490000274,278.18138490000274,278.1650220999727,sal,SB05,01,False,2024-08-07_14h44.06.331,Gratings_vis_devJG_v0.6,2024.1.5,None,2024-08-07 14h44.16.720524 -0400,
55,0,55,0,278.18138490000274,,,,,,,,,278.16536250000354,278.1982207999099,281.19858759990893,283.1816064999439,283.1816064999439,283.1655664999271,sal,SB05,01,False,2024-08-07_14h44.06.331,Gratings_vis_devJG_v0.6,2024.1.5,None,2024-08-07 14h44.16.720524 -0400,
56,0,56,0,283.1816064999439,,,,,,,,,283.16582869994454,283.1980593999615,286.19853429996874,288.1813711998984,288.1813711998984,288.16536579991225,sal,SB05,01,False,2024-08-07_14h44.06.331,Gratings_vis_devJG_v0.6,2024.1.5,None,2024-08-07 14h44.16.720524 -0400,
57,0,57,0,288.1813711998984,,,,,,,,,288.1656187999761,288.1982190000126,291.1986059999326,,,293.1982601999771,sal,SB05,01,False,2024-08-07_14h44.06.331,Gratings_vis_devJG_v0.6,2024.1.5,None,2024-08-07 14h44.16.720524 -0400,
58,0,58,0,293.2155337999575,,,,,,,,,293.1985425999155,293.2155337999575,296.1985584999202,,,298.19823489990085,sal,SB05,01,False,2024-08-07_14h44.06.331,Gratings_vis_devJG_v0.6,2024.1.5,None,2024-08-07 14h44.16.720524 -0400,
59,0,59,0,298.21482829994056,,,,,,,,,298.19851329992525,298.21482829994056,301.1981785999378,,,303.1980508000124,sal,SB05,01,False,2024-08-07_14h44.06.331,Gratings_vis_devJG_v0.6,2024.1.5,None,2024-08-07 14h44.16.720524 -0400,
60,0,60,0,303.21484129992314,,,,,,,,,303.1983091000002,303.21484129992314,306.1984393999446,,,308.19810789998155,sal,SB05,01,False,2024-08-07_14h44.06.331,Gratings_vis_devJG_v0.6,2024.1.5,None,2024-08-07 14h44.16.720524 -0400,
61,0,61,0,308.2149589000037,,,,,,,,,308.19841630000155,308.2149589000037,311.1985271999147,,,313.198186499998,sal,SB05,01,False,2024-08-07_14h44.06.331,Gratings_vis_devJG_v0.6,2024.1.5,None,2024-08-07 14h44.16.720524 -0400,
62,0,62,0,313.2149575999938,,,,,,,,,313.19845799996983,313.2149575999938,316.19846599991433,,,318.19815909990575,sal,SB05,01,False,2024-08-07_14h44.06.331,Gratings_vis_devJG_v0.6,2024.1.5,None,2024-08-07 14h44.16.720524 -0400,
63,0,63,0,318.21481249993667,,,,,,,,,318.19844289997127,318.21481249993667,321.1984880999662,,,323.19807559996843,sal,SB05,01,False,2024-08-07_14h44.06.331,Gratings_vis_devJG_v0.6,2024.1.5,None,2024-08-07 14h44.16.720524 -0400,
64,0,64,0,323.2146147999447,,,,,,,,,323.19836399995256,323.2146147999447,326.1984246999491,,,328.19802529993467,sal,SB05,01,False,2024-08-07_14h44.06.331,Gratings_vis_devJG_v0.6,2024.1.5,None,2024-08-07 14h44.16.720524 -0400,
65,0,65,0,328.2148193999892,,,,,,,,,328.19829619990196,328.2148193999892,331.1982613999862,,,333.19793199992273,sal,SB05,01,False,2024-08-07_14h44.06.331,Gratings_vis_devJG_v0.6,2024.1.5,None,2024-08-07 14h44.16.720524 -0400,
66,0,66,0,333.21460509998724,,,,,,,,,333.1982037998969,333.21460509998724,336.19807499996386,,,338.19808849995025,sal,SB05,01,False,2024-08-07_14h44.06.331,Gratings_vis_devJG_v0.6,2024.1.5,None,2024-08-07 14h44.16.720524 -0400,
67,0,67,0,338.2147062999429,,,,,,,,,338.1983714000089,338.2147062999429,341.198342599906,,,343.1978399999207,sal,SB05,01,False,2024-08-07_14h44.06.331,Gratings_vis_devJG_v0.6,2024.1.5,None,2024-08-07 14h44.16.720524 -0400,
68,0,68,0,343.2145829999354,,,,,,,,,343.19810579996556,343.2145829999354,346.19799769995734,,,348.1979680999648,sal,SB05,01,False,2024-08-07_14h44.06.331,Gratings_vis_devJG_v0.6,2024.1.5,None,2024-08-07 14h44.16.720524 -0400,
69,0,69,0,348.214829799952,,,,,,,,,348.1982318999944,348.214829799952,351.19829929992557,,,353.1998409999069,sal,SB05,01,False,2024-08-07_14h44.06.331,Gratings_vis_devJG_v0.6,2024.1.5,None,2024-08-07 14h44.16.720524 -0400,
70,0,70,0,353.21447229990736,,,,,,,,,353.2001188999275,353.21447229990736,356.19835909991525,,,358.1989835998975,sal,SB05,01,False,2024-08-07_14h44.06.331,Gratings_vis_devJG_v0.6,2024.1.5,None,2024-08-07 14h44.16.720524 -0400,
71,0,71,0,358.21441619994584,,,,,,,,,358.1992637999356,358.21441619994584,361.1979909999063,,,363.19784039992373,sal,SB05,01,False,2024-08-07_14h44.06.331,Gratings_vis_devJG_v0.6,2024.1.5,None,2024-08-07 14h44.16.720524 -0400,
72,0,72,0,363.2144773999462,,,,,,,,,363.1981380999787,363.2144773999462,366.19806799991056,,,368.1978466999717,sal,SB05,01,False,2024-08-07_14h44.06.331,Gratings_vis_devJG_v0.6,2024.1.5,None,2024-08-07 14h44.16.720524 -0400,
73,0,73,0,368.2146027999697,,,,,,,,,368.19811799994204,368.2146027999697,371.1979291999014,,,373.19805099989753,sal,SB05,01,False,2024-08-07_14h44.06.331,Gratings_vis_devJG_v0.6,2024.1.5,None,2024-08-07 14h44.16.720524 -0400,
74,0,74,0,373.21464979997836,,,,,,,,,373.19832289998885,373.21464979997836,376.1982962999027,,,378.19804239994846,sal,SB05,01,False,2024-08-07_14h44.06.331,Gratings_vis_devJG_v0.6,2024.1.5,None,2024-08-07 14h44.16.720524 -0400,
75,0,75,0,378.2143536999356,,,,,,,,,378.19831929996144,378.2143536999356,381.1982399999397,,,383.1976411999203,sal,SB05,01,False,2024-08-07_14h44.06.331,Gratings_vis_devJG_v0.6,2024.1.5,None,2024-08-07 14h44.16.720524 -0400,
76,0,76,0,383.21445969992783,,,,,,,,,383.19795139995404,383.21445969992783,386.19786159996875,,,388.19775369996205,sal,SB05,01,False,2024-08-07_14h44.06.331,Gratings_vis_devJG_v0.6,2024.1.5,None,2024-08-07 14h44.16.720524 -0400,
77,0,77,0,388.21456729993224,,,,,,,,,388.1980324999895,388.21456729993224,391.20186929998454,,,393.19776329991873,sal,SB05,01,False,2024-08-07_14h44.06.331,Gratings_vis_devJG_v0.6,2024.1.5,None,2024-08-07 14h44.16.720524 -0400,
78,0,78,0,393.2143588999752,,,,,,,,,393.19803520001005,393.2143588999752,396.1980798000004,,,398.19771559990477,sal,SB05,01,False,2024-08-07_14h44.06.331,Gratings_vis_devJG_v0.6,2024.1.5,None,2024-08-07 14h44.16.720524 -0400,
79,0,79,0,398.2143277999712,,,,,,,,,398.19800129998475,398.2143277999712,401.19817389990203,,,403.19758529996034,sal,SB05,01,False,2024-08-07_14h44.06.331,Gratings_vis_devJG_v0.6,2024.1.5,None,2024-08-07 14h44.16.720524 -0400,
80,0,80,0,403.21426589996554,,,,,,,,,403.1978459999664,403.21426589996554,406.19772840000223,,,408.19761659996584,sal,SB05,01,False,2024-08-07_14h44.06.331,Gratings_vis_devJG_v0.6,2024.1.5,None,2024-08-07 14h44.16.720524 -0400,
81,0,81,0,408.2142080999911,,,,,,,,,408.19792339997366,408.2142080999911,411.19774879992474,,,413.1978556999238,sal,SB05,01,False,2024-08-07_14h44.06.331,Gratings_vis_devJG_v0.6,2024.1.5,None,2024-08-07 14h44.16.720524 -0400,
82,0,82,0,413.2141849999316,,,,,,,,,413.1981361999642,413.2141849999316,416.19775839999784,,,418.1976324999705,sal,SB05,01,False,2024-08-07_14h44.06.331,Gratings_vis_devJG_v0.6,2024.1.5,None,2024-08-07 14h44.16.720524 -0400,
83,0,83,0,418.21439779992215,,,,,,,,,418.1979162999196,418.21439779992215,421.197707299958,,,423.19764869997744,sal,SB05,01,False,2024-08-07_14h44.06.331,Gratings_vis_devJG_v0.6,2024.1.5,None,2024-08-07 14h44.16.720524 -0400,
84,0,84,0,423.21432799997274,,,,,,,,,423.1979384999722,423.21432799997274,426.19765849993564,,,428.19749829999637,sal,SB05,01,False,2024-08-07_14h44.06.331,Gratings_vis_devJG_v0.6,2024.1.5,None,2024-08-07 14h44.16.720524 -0400,
85,0,85,0,428.2140915999189,,,,,,,,,428.19776639994234,428.2140915999189,431.1977772999089,,,433.1976745999418,sal,SB05,01,False,2024-08-07_14h44.06.331,Gratings_vis_devJG_v0.6,2024.1.5,None,2024-08-07 14h44.16.720524 -0400,
86,0,86,0,433.2140723000048,,,,,,,,,433.1979762999108,433.2140723000048,436.19766909989994,,,438.197618199978,sal,SB05,01,False,2024-08-07_14h44.06.331,Gratings_vis_devJG_v0.6,2024.1.5,None,2024-08-07 14h44.16.720524 -0400,
87,0,87,0,438.21433290001005,,,,,,,,,438.1979144999059,438.21433290001005,441.19856299995445,,,443.19757489999756,sal,SB05,01,False,2024-08-07_14h44.06.331,Gratings_vis_devJG_v0.6,2024.1.5,None,2024-08-07 14h44.16.720524 -0400,
88,0,88,0,443.2139976999024,,,,,,,,,443.1978511000052,443.2139976999024,446.197517399909,,,448.1974570999155,sal,SB05,01,False,2024-08-07_14h44.06.331,Gratings_vis_devJG_v0.6,2024.1.5,None,2024-08-07 14h44.16.720524 -0400,
89,0,89,0,448.2139922999777,,,,,,,,,448.1977457999019,448.2139922999777,451.1977812999394,,,453.19753349991515,sal,SB05,01,False,2024-08-07_14h44.06.331,Gratings_vis_devJG_v0.6,2024.1.5,None,2024-08-07 14h44.16.720524 -0400,
90,0,90,0,453.2140380999772,,,,,,,,,453.1978068999015,453.2140380999772,456.1975868999725,,,458.1990552999778,sal,SB05,01,False,2024-08-07_14h44.06.331,Gratings_vis_devJG_v0.6,2024.1.5,None,2024-08-07 14h44.16.720524 -0400,
91,0,91,0,458.21391189994756,,,,,,,,,458.1993467999855,458.21391189994756,461.19764369993936,,,463.1981496999506,sal,SB05,01,False,2024-08-07_14h44.06.331,Gratings_vis_devJG_v0.6,2024.1.5,None,2024-08-07 14h44.16.720524 -0400,
92,0,92,0,463.2139451999683,,,,,,,,,463.1984187999042,463.2139451999683,466.19962139998097,,,468.1976059000008,sal,SB05,01,False,2024-08-07_14h44.06.331,Gratings_vis_devJG_v0.6,2024.1.5,None,2024-08-07 14h44.16.720524 -0400,
93,0,93,0,468.21585759997834,,,,,,,,,468.1978764999658,468.21585759997834,471.1982401999412,,,473.19746129994746,sal,SB05,01,False,2024-08-07_14h44.06.331,Gratings_vis_devJG_v0.6,2024.1.5,None,2024-08-07 14h44.16.720524 -0400,
94,0,94,0,473.214086699998,,,,,,,,,473.1977488999255,473.214086699998,476.1980198000092,,,478.1972282999195,sal,SB05,01,False,2024-08-07_14h44.06.331,Gratings_vis_devJG_v0.6,2024.1.5,None,2024-08-07 14h44.16.720524 -0400,
95,0,95,0,478.21394279995,,,,,,,,,478.1974903999362,478.21394279995,481.1983980999794,,,483.1990324999206,sal,SB05,01,False,2024-08-07_14h44.06.331,Gratings_vis_devJG_v0.6,2024.1.5,None,2024-08-07 14h44.16.720524 -0400,
96,0,96,0,483.21395020000637,,,,,,,,,483.19930350000504,483.21395020000637,486.2067763999803,,,488.19739019998815,sal,SB05,01,False,2024-08-07_14h44.06.331,Gratings_vis_devJG_v0.6,2024.1.5,None,2024-08-07 14h44.16.720524 -0400,
97,0,97,0,488.21559489995707,,,,,,,,,488.1976682000095,488.21559489995707,491.1980267999461,,,493.1970960999606,sal,SB05,01,False,2024-08-07_14h44.06.331,Gratings_vis_devJG_v0.6,2024.1.5,None,2024-08-07 14h44.16.720524 -0400,
98,0,98,0,493.21377449994907,,,,,,,,,493.19736769993324,493.21377449994907,496.1975636999123,,,498.19740750000346,sal,SB05,01,False,2024-08-07_14h44.06.331,Gratings_vis_devJG_v0.6,2024.1.5,None,2024-08-07 14h44.16.720524 -0400,
99,0,99,0,498.21432999998797,,,,,,,,,498.19774179998785,498.21432999998797,501.1987555999076,,,503.19713509990834,sal,SB05,01,False,2024-08-07_14h44.06.331,Gratings_vis_devJG_v0.6,2024.1.5,None,2024-08-07 14h44.16.720524 -0400,
100,0,100,0,503.2138910999056,,,,,,,,,503.19740959990304,503.2138910999056,506.19927969994023,,,508.19750579993706,sal,SB05,01,False,2024-08-07_14h44.06.331,Gratings_vis_devJG_v0.6,2024.1.5,None,2024-08-07 14h44.16.720524 -0400,
101,0,101,0,508.2137027999852,,,,,,,,,508.19778839999344,508.2137027999852,511.19955439993646,,,513.1976529000094,sal,SB05,01,False,2024-08-07_14h44.06.331,Gratings_vis_devJG_v0.6,2024.1.5,None,2024-08-07 14h44.16.720524 -0400,
102,0,102,0,513.2137357000029,,,,,,,,,513.1979526999639,513.2137357000029,516.1988141000038,,,518.1972528999904,sal,SB05,01,False,2024-08-07_14h44.06.331,Gratings_vis_devJG_v0.6,2024.1.5,None,2024-08-07 14h44.16.720524 -0400,
103,0,103,0,518.2146580999251,,,,,,,,,518.1975541999564,518.2146580999251,521.198015699978,,,523.1972911999328,sal,SB05,01,False,2024-08-07_14h44.06.331,Gratings_vis_devJG_v0.6,2024.1.5,None,2024-08-07 14h44.16.720524 -0400,
104,0,104,0,523.2147894999944,,,,,,,,,523.1975906000007,523.2147894999944,526.2004422999453,,,528.198380399961,sal,SB05,01,False,2024-08-07_14h44.06.331,Gratings_vis_devJG_v0.6,2024.1.5,None,2024-08-07 14h44.16.720524 -0400,
105,0,105,0,528.2153974999674,,,,,,,,,528.198667599936,528.2153974999674,531.198594699963,,,533.1986441999907,sal,SB05,01,False,2024-08-07_14h44.06.331,Gratings_vis_devJG_v0.6,2024.1.5,None,2024-08-07 14h44.16.720524 -0400,
106,0,106,0,533.2159504999872,,,,,,,,,533.1989280999405,533.2159504999872,536.2012008999009,,,538.1981984999729,sal,SB05,01,False,2024-08-07_14h44.06.331,Gratings_vis_devJG_v0.6,2024.1.5,None,2024-08-07 14h44.16.720524 -0400,
107,0,107,0,538.2156615999993,,,,,,,,,538.1984876999632,538.2156615999993,541.1971996999346,,,543.1977401999757,sal,SB05,01,False,2024-08-07_14h44.06.331,Gratings_vis_devJG_v0.6,2024.1.5,None,2024-08-07 14h44.16.720524 -0400,
108,0,108,0,543.2143000999931,,,,,,,,,543.19801990001,543.2143000999931,546.1995091999415,,,548.1971610999899,sal,SB05,01,False,2024-08-07_14h44.06.331,Gratings_vis_devJG_v0.6,2024.1.5,None,2024-08-07 14h44.16.720524 -0400,
109,0,109,0,548.2146752999397,,,,,,,,,548.1974403999047,548.2146752999397,551.1970512999687,,,553.196978299995,sal,SB05,01,False,2024-08-07_14h44.06.331,Gratings_vis_devJG_v0.6,2024.1.5,None,2024-08-07 14h44.16.720524 -0400,
110,0,110,0,553.2149086999707,,,,,,,,,553.1972535999957,553.2149086999707,556.2010208999272,,,558.1968984999694,sal,SB05,01,False,2024-08-07_14h44.06.331,Gratings_vis_devJG_v0.6,2024.1.5,None,2024-08-07 14h44.16.720524 -0400,
111,0,111,0,558.2135153999552,,,,,,,,,558.1973081999458,558.2135153999552,561.1972087000031,,,563.1966419999953,sal,SB05,01,False,2024-08-07_14h44.06.331,Gratings_vis_devJG_v0.6,2024.1.5,None,2024-08-07 14h44.16.720524 -0400,
112,0,112,0,563.2133718999103,,,,,,,,,563.1969116999535,563.2133718999103,566.1973562999628,,,568.1967633999884,sal,SB05,01,False,2024-08-07_14h44.06.331,Gratings_vis_devJG_v0.6,2024.1.5,None,2024-08-07 14h44.16.720524 -0400,
113,0,113,0,568.2136541999644,,,,,,,,,568.1970560000045,568.2136541999644,571.197059399914,,,573.1966600999003,sal,SB05,01,False,2024-08-07_14h44.06.331,Gratings_vis_devJG_v0.6,2024.1.5,None,2024-08-07 14h44.16.720524 -0400,
114,0,114,0,573.2132872999646,,,,,,,,,573.1969146999763,573.2132872999646,576.1972153999377,,,578.1967652000021,sal,SB05,01,False,2024-08-07_14h44.06.331,Gratings_vis_devJG_v0.6,2024.1.5,None,2024-08-07 14h44.16.720524 -0400,
115,0,115,0,578.2136344999308,,,,,,,,,578.1970619999338,578.2136344999308,581.1970686999848,,,583.1966897000093,sal,SB05,01,False,2024-08-07_14h44.06.331,Gratings_vis_devJG_v0.6,2024.1.5,None,2024-08-07 14h44.16.720524 -0400,
116,0,116,0,583.2133698000107,,,,,,,,,583.1969684999203,583.2133698000107,586.1970644999528,,,588.1966011999175,sal,SB05,01,False,2024-08-07_14h44.06.331,Gratings_vis_devJG_v0.6,2024.1.5,None,2024-08-07 14h44.16.720524 -0400,
117,0,117,0,588.2133917999454,,,,,,,,,588.1968599999091,588.2133917999454,591.1970959999599,,,593.1969279999612,sal,SB05,01,False,2024-08-07_14h44.06.331,Gratings_vis_devJG_v0.6,2024.1.5,None,2024-08-07 14h44.16.720524 -0400,
118,0,118,0,593.2134116999805,,,,,,,,,593.1972067999886,593.2134116999805,596.1965923999669,,,598.1965880999342,sal,SB05,01,False,2024-08-07_14h44.06.331,Gratings_vis_devJG_v0.6,2024.1.5,None,2024-08-07 14h44.16.720524 -0400,
119,0,119,0,598.2135356999934,,,,,,,,,598.1968462999212,598.2135356999934,601.197026400012,,,603.1965365000069,sal,SB05,01,False,2024-08-07_14h44.06.331,Gratings_vis_devJG_v0.6,2024.1.5,None,2024-08-07 14h44.16.720524 -0400,
