trials.thisRepN,trials.thisTrialN,trials.thisN,trials.thisIndex,thisRow.t,notes,nidaqTrigger.started,text_waiting_message.started,key_resp.started,nidaqTrigger.stopped,key_resp.keys,key_resp.rt,key_resp.duration,display_gratings.started,stim_grayScreen.started,stim_grating.started,stim_grayScreen.stopped,stim_grating.stopped,display_gratings.stopped,Protocol ID,Subject ID,Session ID,Wait for Trigger,date,expName,psychopyVersion,frameRate,expStart,
,,,,,,0.005969300051219761,0.015465900069102645,0.015465900069102645,24.484558299998753,space,24.46131260006223,None,,,,,,,baseline,SB05,01,False,2024-08-04_17h06.39.254,Gratings_vis_devJG_v0.6,2024.1.5,None,2024-08-04 17h06.48.745419 -0400,
0,0,0,0,24.542524700053036,,,,,,,,,24.540457700029947,24.542524700053036,27.548820200026967,29.532072200090624,29.532072200090624,29.51571820001118,baseline,SB05,01,False,2024-08-04_17h06.39.254,Gratings_vis_devJG_v0.6,2024.1.5,None,2024-08-04 17h06.48.745419 -0400,
1,0,1,0,29.532072200090624,,,,,,,,,29.515991100110114,29.548749200068414,32.549366200109944,34.53240770008415,34.53240770008415,34.516173700103536,baseline,SB05,01,False,2024-08-04_17h06.39.254,Gratings_vis_devJG_v0.6,2024.1.5,None,2024-08-04 17h06.48.745419 -0400,
2,0,2,0,34.53240770008415,,,,,,,,,34.51642530004028,34.54892870003823,37.549148000078276,39.532271600095555,39.532271600095555,39.51613870006986,baseline,SB05,01,False,2024-08-04_17h06.39.254,Gratings_vis_devJG_v0.6,2024.1.5,None,2024-08-04 17h06.48.745419 -0400,
3,0,3,0,39.532271600095555,,,,,,,,,39.51639700005762,39.54886340000667,42.54908050002996,44.53225870011374,44.53225870011374,44.515723400050774,baseline,SB05,01,False,2024-08-04_17h06.39.254,Gratings_vis_devJG_v0.6,2024.1.5,None,2024-08-04 17h06.48.745419 -0400,
4,0,4,0,44.53225870011374,,,,,,,,,44.5159805000294,44.54888680006843,47.54896170005668,49.53215280000586,49.53215280000586,49.51615420007147,baseline,SB05,01,False,2024-08-04_17h06.39.254,Gratings_vis_devJG_v0.6,2024.1.5,None,2024-08-04 17h06.48.745419 -0400,
5,0,5,0,49.53215280000586,,,,,,,,,49.51640600000974,49.54911770008039,52.55203960009385,54.532409400097094,54.532409400097094,54.51574050006457,baseline,SB05,01,False,2024-08-04_17h06.39.254,Gratings_vis_devJG_v0.6,2024.1.5,None,2024-08-04 17h06.48.745419 -0400,
6,0,6,0,54.532409400097094,,,,,,,,,54.51600020006299,54.54879080003593,57.54881770000793,59.53221360000316,59.53221360000316,59.5156496000709,baseline,SB05,01,False,2024-08-04_17h06.39.254,Gratings_vis_devJG_v0.6,2024.1.5,None,2024-08-04 17h06.48.745419 -0400,
7,0,7,0,59.53221360000316,,,,,,,,,59.51591380010359,59.54875510011334,62.54877590003889,64.53215770004317,64.53215770004317,64.51646510011051,baseline,SB05,01,False,2024-08-04_17h06.39.254,Gratings_vis_devJG_v0.6,2024.1.5,None,2024-08-04 17h06.48.745419 -0400,
8,0,8,0,64.53215770004317,,,,,,,,,64.5167629000498,64.5487738000229,67.54879190004431,69.53219990001526,69.53219990001526,69.5156703001121,baseline,SB05,01,False,2024-08-04_17h06.39.254,Gratings_vis_devJG_v0.6,2024.1.5,None,2024-08-04 17h06.48.745419 -0400,
9,0,9,0,69.53219990001526,,,,,,,,,69.51593640004285,69.54888630006462,72.54869090009015,74.53207840002142,74.53207840002142,74.51594400010072,baseline,SB05,01,False,2024-08-04_17h06.39.254,Gratings_vis_devJG_v0.6,2024.1.5,None,2024-08-04 17h06.48.745419 -0400,
10,0,10,0,74.53207840002142,,,,,,,,,74.51620620000176,74.54868980008177,77.54868600005284,79.53197790007107,79.53197790007107,79.5159492000239,baseline,SB05,01,False,2024-08-04_17h06.39.254,Gratings_vis_devJG_v0.6,2024.1.5,None,2024-08-04 17h06.48.745419 -0400,
11,0,11,0,79.53197790007107,,,,,,,,,79.51620680000633,79.54865580005571,82.54867150005884,84.53194810007699,84.53194810007699,84.51594330009539,baseline,SB05,01,False,2024-08-04_17h06.39.254,Gratings_vis_devJG_v0.6,2024.1.5,None,2024-08-04 17h06.48.745419 -0400,
12,0,12,0,84.53194810007699,,,,,,,,,84.51619880006183,84.54863810003735,87.54878060007468,89.53199450008105,89.53199450008105,89.51554530009162,baseline,SB05,01,False,2024-08-04_17h06.39.254,Gratings_vis_devJG_v0.6,2024.1.5,None,2024-08-04 17h06.48.745419 -0400,
13,0,13,0,89.53199450008105,,,,,,,,,89.51579700002912,89.54862290003803,92.54878860001918,94.5319372001104,94.5319372001104,94.51545750000514,baseline,SB05,01,False,2024-08-04_17h06.39.254,Gratings_vis_devJG_v0.6,2024.1.5,None,2024-08-04 17h06.48.745419 -0400,
14,0,14,0,94.5319372001104,,,,,,,,,94.51570870005526,94.54861510009505,97.54878420010209,99.53192930005025,99.53192930005025,99.51549240003806,baseline,SB05,01,False,2024-08-04_17h06.39.254,Gratings_vis_devJG_v0.6,2024.1.5,None,2024-08-04 17h06.48.745419 -0400,
15,0,15,0,99.53192930005025,,,,,,,,,99.51575590006541,99.54862680006772,102.54880010010675,104.53190970001742,104.53190970001742,104.51546750008129,baseline,SB05,01,False,2024-08-04_17h06.39.254,Gratings_vis_devJG_v0.6,2024.1.5,None,2024-08-04 17h06.48.745419 -0400,
16,0,16,0,104.53190970001742,,,,,,,,,104.51573590002954,104.54855070007034,107.54872420011088,109.53187030006666,109.53187030006666,109.51542590011377,baseline,SB05,01,False,2024-08-04_17h06.39.254,Gratings_vis_devJG_v0.6,2024.1.5,None,2024-08-04 17h06.48.745419 -0400,
17,0,17,0,109.53187030006666,,,,,,,,,109.51567120000254,109.54857030010317,112.54866560001392,114.5318213000428,114.5318213000428,114.5153712000465,baseline,SB05,01,False,2024-08-04_17h06.39.254,Gratings_vis_devJG_v0.6,2024.1.5,None,2024-08-04 17h06.48.745419 -0400,
18,0,18,0,114.5318213000428,,,,,,,,,114.51561910007149,114.54853520006873,117.54868980008177,119.53178240009584,119.53178240009584,119.51572860009037,baseline,SB05,01,False,2024-08-04_17h06.39.254,Gratings_vis_devJG_v0.6,2024.1.5,None,2024-08-04 17h06.48.745419 -0400,
19,0,19,0,119.53178240009584,,,,,,,,,119.51598290004767,119.548446000088,122.54897130001336,124.53175600001123,124.53175600001123,124.51530150009785,baseline,SB05,01,False,2024-08-04_17h06.39.254,Gratings_vis_devJG_v0.6,2024.1.5,None,2024-08-04 17h06.48.745419 -0400,
20,0,20,0,124.53175600001123,,,,,,,,,124.51555760006886,124.54848550003953,127.54863040009513,129.53176790010184,129.53176790010184,129.51546910009347,baseline,SB05,01,False,2024-08-04_17h06.39.254,Gratings_vis_devJG_v0.6,2024.1.5,None,2024-08-04 17h06.48.745419 -0400,
21,0,21,0,129.53176790010184,,,,,,,,,129.51571450009942,129.54845630005002,132.54858170007356,134.53171540005133,134.53171540005133,134.51538290001918,baseline,SB05,01,False,2024-08-04_17h06.39.254,Gratings_vis_devJG_v0.6,2024.1.5,None,2024-08-04 17h06.48.745419 -0400,
22,0,22,0,134.53171540005133,,,,,,,,,134.5156398001127,134.54836310003884,137.5485992000904,139.5317144000437,139.5317144000437,139.51530000008643,baseline,SB05,01,False,2024-08-04_17h06.39.254,Gratings_vis_devJG_v0.6,2024.1.5,None,2024-08-04 17h06.48.745419 -0400,
23,0,23,0,139.5317144000437,,,,,,,,,139.51555170002393,139.54835010005627,142.5486675000284,144.53166610002518,144.53166610002518,144.5155562000582,baseline,SB05,01,False,2024-08-04_17h06.39.254,Gratings_vis_devJG_v0.6,2024.1.5,None,2024-08-04 17h06.48.745419 -0400,
24,0,24,0,144.53166610002518,,,,,,,,,144.51580740010832,144.54835070006084,147.54958040011115,149.5316901000915,149.5316901000915,149.51560570008587,baseline,SB05,01,False,2024-08-04_17h06.39.254,Gratings_vis_devJG_v0.6,2024.1.5,None,2024-08-04 17h06.48.745419 -0400,
25,0,25,0,149.5316901000915,,,,,,,,,149.5158918000525,149.54832430009264,152.54917680006474,154.53163330000825,154.53163330000825,154.51522790000308,baseline,SB05,01,False,2024-08-04_17h06.39.254,Gratings_vis_devJG_v0.6,2024.1.5,None,2024-08-04 17h06.48.745419 -0400,
26,0,26,0,154.53163330000825,,,,,,,,,154.51548050006386,154.5483203000622,157.5488843000494,159.53165710007306,159.53165710007306,159.51518680003937,baseline,SB05,01,False,2024-08-04_17h06.39.254,Gratings_vis_devJG_v0.6,2024.1.5,None,2024-08-04 17h06.48.745419 -0400,
27,0,27,0,159.53165710007306,,,,,,,,,159.51543150004,159.5482892000582,162.54846650001127,164.53163219999988,164.53163219999988,164.51555770006962,baseline,SB05,01,False,2024-08-04_17h06.39.254,Gratings_vis_devJG_v0.6,2024.1.5,None,2024-08-04 17h06.48.745419 -0400,
28,0,28,0,164.53163219999988,,,,,,,,,164.51581290003378,164.54827100003604,167.54849140008446,169.53155810001772,169.53155810001772,169.51516410009935,baseline,SB05,01,False,2024-08-04_17h06.39.254,Gratings_vis_devJG_v0.6,2024.1.5,None,2024-08-04 17h06.48.745419 -0400,
29,0,29,0,169.53155810001772,,,,,,,,,169.51542000006884,169.54855170007795,172.5484879000578,174.53152330010198,174.53152330010198,174.5153960000025,baseline,SB05,01,False,2024-08-04_17h06.39.254,Gratings_vis_devJG_v0.6,2024.1.5,None,2024-08-04 17h06.48.745419 -0400,
30,0,30,0,174.53152330010198,,,,,,,,,174.51565280009527,174.54870970000047,177.54838250007015,179.53151760005858,179.53151760005858,179.5151311000809,baseline,SB05,01,False,2024-08-04_17h06.39.254,Gratings_vis_devJG_v0.6,2024.1.5,None,2024-08-04 17h06.48.745419 -0400,
31,0,31,0,179.53151760005858,,,,,,,,,179.51542390009854,179.54877500003204,182.54847220005468,184.5314609000925,184.5314609000925,184.51508110004943,baseline,SB05,01,False,2024-08-04_17h06.39.254,Gratings_vis_devJG_v0.6,2024.1.5,None,2024-08-04 17h06.48.745419 -0400,
32,0,32,0,184.5314609000925,,,,,,,,,184.51534160005394,184.5481648000423,187.548356500105,189.5314482001122,189.5314482001122,189.51669980003498,baseline,SB05,01,False,2024-08-04_17h06.39.254,Gratings_vis_devJG_v0.6,2024.1.5,None,2024-08-04 17h06.48.745419 -0400,
33,0,33,0,189.5314482001122,,,,,,,,,189.5169419000158,189.54813780006953,192.54832500009798,194.5314795000013,194.5314795000013,194.51645510003436,baseline,SB05,01,False,2024-08-04_17h06.39.254,Gratings_vis_devJG_v0.6,2024.1.5,None,2024-08-04 17h06.48.745419 -0400,
34,0,34,0,194.5314795000013,,,,,,,,,194.51669970003422,194.54810750007164,197.5483249000972,199.53145070001483,199.53145070001483,199.5160131000448,baseline,SB05,01,False,2024-08-04_17h06.39.254,Gratings_vis_devJG_v0.6,2024.1.5,None,2024-08-04 17h06.48.745419 -0400,
35,0,35,0,199.53145070001483,,,,,,,,,199.51627070002723,199.54811000009067,202.54859020002186,204.53142240003217,204.53142240003217,204.51510340010282,baseline,SB05,01,False,2024-08-04_17h06.39.254,Gratings_vis_devJG_v0.6,2024.1.5,None,2024-08-04 17h06.48.745419 -0400,
36,0,36,0,204.53142240003217,,,,,,,,,204.51537190005183,204.54814000008628,207.54832190007437,209.53143620002083,209.53143620002083,209.51508520008065,baseline,SB05,01,False,2024-08-04_17h06.39.254,Gratings_vis_devJG_v0.6,2024.1.5,None,2024-08-04 17h06.48.745419 -0400,
37,0,37,0,209.53143620002083,,,,,,,,,209.51535300002433,209.5506351001095,212.54846950003412,214.53146800003015,214.53146800003015,214.5153166000964,baseline,SB05,01,False,2024-08-04_17h06.39.254,Gratings_vis_devJG_v0.6,2024.1.5,None,2024-08-04 17h06.48.745419 -0400,
38,0,38,0,214.53146800003015,,,,,,,,,214.51556670002174,214.54804170003626,217.54832840000745,219.53139970009215,219.53139970009215,219.51490820001345,baseline,SB05,01,False,2024-08-04_17h06.39.254,Gratings_vis_devJG_v0.6,2024.1.5,None,2024-08-04 17h06.48.745419 -0400,
39,0,39,0,219.53139970009215,,,,,,,,,219.51516290009022,219.548039300018,222.54864260007162,224.53127530007623,224.53127530007623,224.51488310005516,baseline,SB05,01,False,2024-08-04_17h06.39.254,Gratings_vis_devJG_v0.6,2024.1.5,None,2024-08-04 17h06.48.745419 -0400,
40,0,40,0,224.53127530007623,,,,,,,,,224.51516070007347,224.5479286001064,227.54887280007824,229.53123720001895,229.53123720001895,229.51491760008503,baseline,SB05,01,False,2024-08-04_17h06.39.254,Gratings_vis_devJG_v0.6,2024.1.5,None,2024-08-04 17h06.48.745419 -0400,
41,0,41,0,229.53123720001895,,,,,,,,,229.51517700008117,229.54793030000292,232.54993870004546,234.5325956000015,234.5325956000015,234.51495100010652,baseline,SB05,01,False,2024-08-04_17h06.39.254,Gratings_vis_devJG_v0.6,2024.1.5,None,2024-08-04 17h06.48.745419 -0400,
42,0,42,0,234.5325956000015,,,,,,,,,234.51520310004707,234.5479350000387,237.54952190001495,239.53123570000753,239.53123570000753,239.51494550006464,baseline,SB05,01,False,2024-08-04_17h06.39.254,Gratings_vis_devJG_v0.6,2024.1.5,None,2024-08-04 17h06.48.745419 -0400,
43,0,43,0,239.53123570000753,,,,,,,,,239.51518890005536,239.5479927000124,242.54984380002134,244.5315230000997,244.5315230000997,244.5150235000765,baseline,SB05,01,False,2024-08-04_17h06.39.254,Gratings_vis_devJG_v0.6,2024.1.5,None,2024-08-04 17h06.48.745419 -0400,
44,0,44,0,244.5315230000997,,,,,,,,,244.51527000009082,244.54814260010608,247.55010170000605,249.53181310009677,249.53181310009677,249.5158731000265,baseline,SB05,01,False,2024-08-04_17h06.39.254,Gratings_vis_devJG_v0.6,2024.1.5,None,2024-08-04 17h06.48.745419 -0400,
45,0,45,0,249.53181310009677,,,,,,,,,249.5161347000394,249.5484266000567,252.55042570002843,254.53205970011186,254.53205970011186,254.51596220000647,baseline,SB05,01,False,2024-08-04_17h06.39.254,Gratings_vis_devJG_v0.6,2024.1.5,None,2024-08-04 17h06.48.745419 -0400,
46,0,46,0,254.53205970011186,,,,,,,,,254.51620490010828,254.5487143000355,257.55074340000283,259.53233470011037,259.53233470011037,259.51635220006574,baseline,SB05,01,False,2024-08-04_17h06.39.254,Gratings_vis_devJG_v0.6,2024.1.5,None,2024-08-04 17h06.48.745419 -0400,
47,0,47,0,259.53233470011037,,,,,,,,,259.5166020001052,259.5489878000226,262.54827050003223,264.5310234000208,264.5310234000208,264.5151070000138,baseline,SB05,01,False,2024-08-04_17h06.39.254,Gratings_vis_devJG_v0.6,2024.1.5,None,2024-08-04 17h06.48.745419 -0400,
48,0,48,0,264.5310234000208,,,,,,,,,264.51535400003195,264.5477157999994,267.54843790002633,269.5310888000531,269.5310888000531,269.51481100008823,baseline,SB05,01,False,2024-08-04_17h06.39.254,Gratings_vis_devJG_v0.6,2024.1.5,None,2024-08-04 17h06.48.745419 -0400,
49,0,49,0,269.5310888000531,,,,,,,,,269.5150638000341,269.5476965000853,272.54778330004774,274.53098050004337,274.53098050004337,274.51451030001044,baseline,SB05,01,False,2024-08-04_17h06.39.254,Gratings_vis_devJG_v0.6,2024.1.5,None,2024-08-04 17h06.48.745419 -0400,
50,0,50,0,274.53098050004337,,,,,,,,,274.51474990008865,274.5476158000529,277.54778560006525,279.5309404000873,279.5309404000873,279.5145596000366,baseline,SB05,01,False,2024-08-04_17h06.39.254,Gratings_vis_devJG_v0.6,2024.1.5,None,2024-08-04 17h06.48.745419 -0400,
51,0,51,0,279.5309404000873,,,,,,,,,279.5148354000412,279.5475465001073,282.548048100085,284.53104710008483,284.53104710008483,284.51446400000714,baseline,SB05,01,False,2024-08-04_17h06.39.254,Gratings_vis_devJG_v0.6,2024.1.5,None,2024-08-04 17h06.48.745419 -0400,
52,0,52,0,284.53104710008483,,,,,,,,,284.51471570006106,284.54752770008054,287.54798870009836,289.53084650007077,289.53084650007077,289.5148098000791,baseline,SB05,01,False,2024-08-04_17h06.39.254,Gratings_vis_devJG_v0.6,2024.1.5,None,2024-08-04 17h06.48.745419 -0400,
53,0,53,0,289.53084650007077,,,,,,,,,289.51516550011,289.5476541001117,292.5477792000165,,,294.54760970000643,baseline,SB05,01,False,2024-08-04_17h06.39.254,Gratings_vis_devJG_v0.6,2024.1.5,None,2024-08-04 17h06.48.745419 -0400,
54,0,54,0,294.56431200006045,,,,,,,,,294.5478915000567,294.56431200006045,297.54767330002505,,,299.5480988000054,baseline,SB05,01,False,2024-08-04_17h06.39.254,Gratings_vis_devJG_v0.6,2024.1.5,None,2024-08-04 17h06.48.745419 -0400,
55,0,55,0,299.5643507000059,,,,,,,,,299.54836670006625,299.5643507000059,302.5478839999996,,,304.54751080006827,baseline,SB05,01,False,2024-08-04_17h06.39.254,Gratings_vis_devJG_v0.6,2024.1.5,None,2024-08-04 17h06.48.745419 -0400,
56,0,56,0,304.564237600076,,,,,,,,,304.54777660011314,304.564237600076,307.54767880006693,,,309.5475366000319,baseline,SB05,01,False,2024-08-04_17h06.39.254,Gratings_vis_devJG_v0.6,2024.1.5,None,2024-08-04 17h06.48.745419 -0400,
57,0,57,0,309.5642431000015,,,,,,,,,309.54780190007295,309.5642431000015,312.54767020000145,,,314.54747250000946,baseline,SB05,01,False,2024-08-04_17h06.39.254,Gratings_vis_devJG_v0.6,2024.1.5,None,2024-08-04 17h06.48.745419 -0400,
58,0,58,0,314.56418320001103,,,,,,,,,314.5477391000604,314.56418320001103,317.5475700000534,,,319.54749580007046,baseline,SB05,01,False,2024-08-04_17h06.39.254,Gratings_vis_devJG_v0.6,2024.1.5,None,2024-08-04 17h06.48.745419 -0400,
59,0,59,0,319.56416380009614,,,,,,,,,319.5477731000865,319.56416380009614,322.54756880004425,,,324.5474367000861,baseline,SB05,01,False,2024-08-04_17h06.39.254,Gratings_vis_devJG_v0.6,2024.1.5,None,2024-08-04 17h06.48.745419 -0400,
60,0,60,0,324.5641028000973,,,,,,,,,324.5477130000945,324.5641028000973,327.54757240007166,,,329.5474641000619,baseline,SB05,01,False,2024-08-04_17h06.39.254,Gratings_vis_devJG_v0.6,2024.1.5,None,2024-08-04 17h06.48.745419 -0400,
61,0,61,0,329.5640656000469,,,,,,,,,329.54776460002176,329.5640656000469,332.54752660007216,,,334.54746350005735,baseline,SB05,01,False,2024-08-04_17h06.39.254,Gratings_vis_devJG_v0.6,2024.1.5,None,2024-08-04 17h06.48.745419 -0400,
62,0,62,0,334.5640943000326,,,,,,,,,334.54774780001026,334.5640943000326,337.54769040003885,,,339.54731680010445,baseline,SB05,01,False,2024-08-04_17h06.39.254,Gratings_vis_devJG_v0.6,2024.1.5,None,2024-08-04 17h06.48.745419 -0400,
63,0,63,0,339.5640646000393,,,,,,,,,339.5475899000885,339.5640646000393,342.5474553001113,,,344.5474155000411,baseline,SB05,01,False,2024-08-04_17h06.39.254,Gratings_vis_devJG_v0.6,2024.1.5,None,2024-08-04 17h06.48.745419 -0400,
64,0,64,0,344.5642035000492,,,,,,,,,344.54770250001457,344.5642035000492,347.5476952000754,,,349.5473283000756,baseline,SB05,01,False,2024-08-04_17h06.39.254,Gratings_vis_devJG_v0.6,2024.1.5,None,2024-08-04 17h06.48.745419 -0400,
65,0,65,0,349.56402690010145,,,,,,,,,349.5476303000469,349.56402690010145,352.547364500002,,,354.5473184000002,baseline,SB05,01,False,2024-08-04_17h06.39.254,Gratings_vis_devJG_v0.6,2024.1.5,None,2024-08-04 17h06.48.745419 -0400,
66,0,66,0,354.5639232000103,,,,,,,,,354.5476181000704,354.5639232000103,357.54736030008644,,,359.5474377000937,baseline,SB05,01,False,2024-08-04_17h06.39.254,Gratings_vis_devJG_v0.6,2024.1.5,None,2024-08-04 17h06.48.745419 -0400,
67,0,67,0,359.56389860005584,,,,,,,,,359.54769300005864,359.56389860005584,362.5474012000486,,,364.547293700045,baseline,SB05,01,False,2024-08-04_17h06.39.254,Gratings_vis_devJG_v0.6,2024.1.5,None,2024-08-04 17h06.48.745419 -0400,
68,0,68,0,364.5638937000185,,,,,,,,,364.5475663000252,364.5638937000185,367.54736130009405,,,369.5472442000173,baseline,SB05,01,False,2024-08-04_17h06.39.254,Gratings_vis_devJG_v0.6,2024.1.5,None,2024-08-04 17h06.48.745419 -0400,
69,0,69,0,369.56387190008536,,,,,,,,,369.5475065000355,369.56387190008536,372.54718380002305,,,374.5471919000847,baseline,SB05,01,False,2024-08-04_17h06.39.254,Gratings_vis_devJG_v0.6,2024.1.5,None,2024-08-04 17h06.48.745419 -0400,
70,0,70,0,374.5638596001081,,,,,,,,,374.54745440010447,374.5638596001081,377.54716700001154,,,379.54721070011146,baseline,SB05,01,False,2024-08-04_17h06.39.254,Gratings_vis_devJG_v0.6,2024.1.5,None,2024-08-04 17h06.48.745419 -0400,
71,0,71,0,379.56382350006606,,,,,,,,,379.5474804000696,379.56382350006606,382.5471583000617,,,384.5472153000301,baseline,SB05,01,False,2024-08-04_17h06.39.254,Gratings_vis_devJG_v0.6,2024.1.5,None,2024-08-04 17h06.48.745419 -0400,
72,0,72,0,384.56375620001927,,,,,,,,,384.54747119999956,384.56375620001927,387.5473234000383,,,389.5471775000915,baseline,SB05,01,False,2024-08-04_17h06.39.254,Gratings_vis_devJG_v0.6,2024.1.5,None,2024-08-04 17h06.48.745419 -0400,
73,0,73,0,389.56395060010254,,,,,,,,,389.54743190004956,389.56395060010254,392.5472473000409,,,394.5470618000254,baseline,SB05,01,False,2024-08-04_17h06.39.254,Gratings_vis_devJG_v0.6,2024.1.5,None,2024-08-04 17h06.48.745419 -0400,
74,0,74,0,394.56373860000167,,,,,,,,,394.5473615000956,394.56373860000167,397.5472494000569,,,399.5470696000848,baseline,SB05,01,False,2024-08-04_17h06.39.254,Gratings_vis_devJG_v0.6,2024.1.5,None,2024-08-04 17h06.48.745419 -0400,
75,0,75,0,399.56368800008204,,,,,,,,,399.5473381000338,399.56368800008204,402.5472318000393,,,404.54714580008294,baseline,SB05,01,False,2024-08-04_17h06.39.254,Gratings_vis_devJG_v0.6,2024.1.5,None,2024-08-04 17h06.48.745419 -0400,
76,0,76,0,404.56367910001427,,,,,,,,,404.54745240008924,404.56367910001427,407.5472098001046,,,409.5470398000907,baseline,SB05,01,False,2024-08-04_17h06.39.254,Gratings_vis_devJG_v0.6,2024.1.5,None,2024-08-04 17h06.48.745419 -0400,
77,0,77,0,409.56369730003644,,,,,,,,,409.5472954000579,409.56369730003644,412.5474447000306,,,414.54704020009376,baseline,SB05,01,False,2024-08-04_17h06.39.254,Gratings_vis_devJG_v0.6,2024.1.5,None,2024-08-04 17h06.48.745419 -0400,
78,0,78,0,414.56369190011173,,,,,,,,,414.54729870008305,414.56369190011173,417.5471431000624,,,419.54699930001516,baseline,SB05,01,False,2024-08-04_17h06.39.254,Gratings_vis_devJG_v0.6,2024.1.5,None,2024-08-04 17h06.48.745419 -0400,
79,0,79,0,419.56364940002095,,,,,,,,,419.54726950009353,419.56364940002095,422.5471315000905,,,424.5469772000797,baseline,SB05,01,False,2024-08-04_17h06.39.254,Gratings_vis_devJG_v0.6,2024.1.5,None,2024-08-04 17h06.48.745419 -0400,
80,0,80,0,424.56365820008796,,,,,,,,,424.54730160010513,424.56365820008796,427.54706300003454,,,429.54688530007843,baseline,SB05,01,False,2024-08-04_17h06.39.254,Gratings_vis_devJG_v0.6,2024.1.5,None,2024-08-04 17h06.48.745419 -0400,
81,0,81,0,429.5635913000442,,,,,,,,,429.54717420006637,429.5635913000442,432.54704610002227,,,434.54691910010297,baseline,SB05,01,False,2024-08-04_17h06.39.254,Gratings_vis_devJG_v0.6,2024.1.5,None,2024-08-04 17h06.48.745419 -0400,
82,0,82,0,434.5635088001145,,,,,,,,,434.547187600052,434.5635088001145,437.54708320007194,,,439.5468660000479,baseline,SB05,01,False,2024-08-04_17h06.39.254,Gratings_vis_devJG_v0.6,2024.1.5,None,2024-08-04 17h06.48.745419 -0400,
83,0,83,0,439.5635665000882,,,,,,,,,439.5471356000053,439.5635665000882,442.54710460000206,,,444.54688470007386,baseline,SB05,01,False,2024-08-04_17h06.39.254,Gratings_vis_devJG_v0.6,2024.1.5,None,2024-08-04 17h06.48.745419 -0400,
84,0,84,0,444.56353560008574,,,,,,,,,444.54717600008007,444.56353560008574,447.54707750002854,,,449.5468911000062,baseline,SB05,01,False,2024-08-04_17h06.39.254,Gratings_vis_devJG_v0.6,2024.1.5,None,2024-08-04 17h06.48.745419 -0400,
85,0,85,0,449.5634635000024,,,,,,,,,449.547192200087,449.5634635000024,452.547077300027,,,454.54683950007893,baseline,SB05,01,False,2024-08-04_17h06.39.254,Gratings_vis_devJG_v0.6,2024.1.5,None,2024-08-04 17h06.48.745419 -0400,
86,0,86,0,454.56346830003895,,,,,,,,,454.5471073000226,454.56346830003895,457.5486765000969,,,459.5467983999988,baseline,SB05,01,False,2024-08-04_17h06.39.254,Gratings_vis_devJG_v0.6,2024.1.5,None,2024-08-04 17h06.48.745419 -0400,
87,0,87,0,459.56341780000366,,,,,,,,,459.54705910000484,459.56341780000366,462.548322900082,,,464.54692580003757,baseline,SB05,01,False,2024-08-04_17h06.39.254,Gratings_vis_devJG_v0.6,2024.1.5,None,2024-08-04 17h06.48.745419 -0400,
88,0,88,0,464.5633624000475,,,,,,,,,464.5471915000817,464.5633624000475,467.5480594000546,,,469.5470823000651,baseline,SB05,01,False,2024-08-04_17h06.39.254,Gratings_vis_devJG_v0.6,2024.1.5,None,2024-08-04 17h06.48.745419 -0400,
89,0,89,0,469.56411280005705,,,,,,,,,469.5473470001016,469.56411280005705,472.5468833000632,,,474.5467958000954,baseline,SB05,01,False,2024-08-04_17h06.39.254,Gratings_vis_devJG_v0.6,2024.1.5,None,2024-08-04 17h06.48.745419 -0400,
90,0,90,0,474.56400180002674,,,,,,,,,474.5470926000271,474.56400180002674,477.5469562000362,,,479.5476253000088,baseline,SB05,01,False,2024-08-04_17h06.39.254,Gratings_vis_devJG_v0.6,2024.1.5,None,2024-08-04 17h06.48.745419 -0400,
91,0,91,0,479.5641698000254,,,,,,,,,479.5479159000097,479.5641698000254,482.54694680008106,,,484.54795560007915,baseline,SB05,01,False,2024-08-04_17h06.39.254,Gratings_vis_devJG_v0.6,2024.1.5,None,2024-08-04 17h06.48.745419 -0400,
92,0,92,0,484.56334980006795,,,,,,,,,484.548272700049,484.56334980006795,487.5467971001053,,,489.546621400048,baseline,SB05,01,False,2024-08-04_17h06.39.254,Gratings_vis_devJG_v0.6,2024.1.5,None,2024-08-04 17h06.48.745419 -0400,
93,0,93,0,489.5649494000245,,,,,,,,,489.54688190005254,489.5649494000245,492.54675330000464,,,494.5467464000685,baseline,SB05,01,False,2024-08-04_17h06.39.254,Gratings_vis_devJG_v0.6,2024.1.5,None,2024-08-04 17h06.48.745419 -0400,
94,0,94,0,494.56497380009387,,,,,,,,,494.5470333000412,494.56497380009387,497.5469333000947,,,499.5465956000844,baseline,SB05,01,False,2024-08-04_17h06.39.254,Gratings_vis_devJG_v0.6,2024.1.5,None,2024-08-04 17h06.48.745419 -0400,
95,0,95,0,499.5653189000441,,,,,,,,,499.5468825000571,499.5653189000441,502.54887490009423,,,504.5466660000384,baseline,SB05,01,False,2024-08-04_17h06.39.254,Gratings_vis_devJG_v0.6,2024.1.5,None,2024-08-04 17h06.48.745419 -0400,
96,0,96,0,504.5631636000471,,,,,,,,,504.54696910001803,504.5631636000471,507.54677810007706,,,509.54649770003743,baseline,SB05,01,False,2024-08-04_17h06.39.254,Gratings_vis_devJG_v0.6,2024.1.5,None,2024-08-04 17h06.48.745419 -0400,
97,0,97,0,509.5631308000302,,,,,,,,,509.5467589000473,509.5631308000302,512.5468127001077,,,514.5465714000165,baseline,SB05,01,False,2024-08-04_17h06.39.254,Gratings_vis_devJG_v0.6,2024.1.5,None,2024-08-04 17h06.48.745419 -0400,
98,0,98,0,514.5631066000788,,,,,,,,,514.5468312000157,514.5631066000788,517.5470083000837,,,519.546642600093,baseline,SB05,01,False,2024-08-04_17h06.39.254,Gratings_vis_devJG_v0.6,2024.1.5,None,2024-08-04 17h06.48.745419 -0400,
99,0,99,0,519.5630963000003,,,,,,,,,519.5468989000656,519.5630963000003,522.5472564001102,,,524.5464531000471,baseline,SB05,01,False,2024-08-04_17h06.39.254,Gratings_vis_devJG_v0.6,2024.1.5,None,2024-08-04 17h06.48.745419 -0400,
100,0,100,0,524.5631148000248,,,,,,,,,524.5467191000935,524.5631148000248,527.5476504000835,,,529.5467887000414,baseline,SB05,01,False,2024-08-04_17h06.39.254,Gratings_vis_devJG_v0.6,2024.1.5,None,2024-08-04 17h06.48.745419 -0400,
101,0,101,0,529.5633405001136,,,,,,,,,529.5470577001106,529.5633405001136,532.5478698000079,,,534.5464038000209,baseline,SB05,01,False,2024-08-04_17h06.39.254,Gratings_vis_devJG_v0.6,2024.1.5,None,2024-08-04 17h06.48.745419 -0400,
102,0,102,0,534.5631507000653,,,,,,,,,534.5466537000611,534.5631507000653,537.5482708000345,,,539.5466209000442,baseline,SB05,01,False,2024-08-04_17h06.39.254,Gratings_vis_devJG_v0.6,2024.1.5,None,2024-08-04 17h06.48.745419 -0400,
103,0,103,0,539.5632070000283,,,,,,,,,539.5469244000269,539.5632070000283,542.5485311000375,,,544.5468760000076,baseline,SB05,01,False,2024-08-04_17h06.39.254,Gratings_vis_devJG_v0.6,2024.1.5,None,2024-08-04 17h06.48.745419 -0400,
104,0,104,0,544.5635529001011,,,,,,,,,544.5471309000859,544.5635529001011,547.5489512000931,,,549.5472115000011,baseline,SB05,01,False,2024-08-04_17h06.39.254,Gratings_vis_devJG_v0.6,2024.1.5,None,2024-08-04 17h06.48.745419 -0400,
105,0,105,0,549.563918900094,,,,,,,,,549.5474917000392,549.563918900094,552.5490729000885,,,554.5461925000418,baseline,SB05,01,False,2024-08-04_17h06.39.254,Gratings_vis_devJG_v0.6,2024.1.5,None,2024-08-04 17h06.48.745419 -0400,
106,0,106,0,554.5639850000152,,,,,,,,,554.5464871000731,554.5639850000152,557.5465214001015,,,559.5461810000706,baseline,SB05,01,False,2024-08-04_17h06.39.254,Gratings_vis_devJG_v0.6,2024.1.5,None,2024-08-04 17h06.48.745419 -0400,
107,0,107,0,559.5628178000916,,,,,,,,,559.5464648000197,559.5628178000916,562.54676320008,,,564.5461645000614,baseline,SB05,01,False,2024-08-04_17h06.39.254,Gratings_vis_devJG_v0.6,2024.1.5,None,2024-08-04 17h06.48.745419 -0400,
108,0,108,0,564.5628510001116,,,,,,,,,564.546430400107,564.5628510001116,567.5463993001031,,,569.5460846000351,baseline,SB05,01,False,2024-08-04_17h06.39.254,Gratings_vis_devJG_v0.6,2024.1.5,None,2024-08-04 17h06.48.745419 -0400,
109,0,109,0,569.5628122000489,,,,,,,,,569.546343700029,569.5628122000489,572.5462120000739,,,574.5461097001098,baseline,SB05,01,False,2024-08-04_17h06.39.254,Gratings_vis_devJG_v0.6,2024.1.5,None,2024-08-04 17h06.48.745419 -0400,
110,0,110,0,574.5629176000366,,,,,,,,,574.5463655000785,574.5629176000366,577.5463078001048,,,579.5461268000072,baseline,SB05,01,False,2024-08-04_17h06.39.254,Gratings_vis_devJG_v0.6,2024.1.5,None,2024-08-04 17h06.48.745419 -0400,
111,0,111,0,579.5628208001144,,,,,,,,,579.5464091000613,579.5628208001144,582.546164700063,,,584.5461223000893,baseline,SB05,01,False,2024-08-04_17h06.39.254,Gratings_vis_devJG_v0.6,2024.1.5,None,2024-08-04 17h06.48.745419 -0400,
112,0,112,0,584.5627541000722,,,,,,,,,584.5463911000406,584.5627541000722,587.5461726000067,,,589.5461741000181,baseline,SB05,01,False,2024-08-04_17h06.39.254,Gratings_vis_devJG_v0.6,2024.1.5,None,2024-08-04 17h06.48.745419 -0400,
113,0,113,0,589.5626610000618,,,,,,,,,589.5464583000867,589.5626610000618,592.5465618000599,,,594.5460225000279,baseline,SB05,01,False,2024-08-04_17h06.39.254,Gratings_vis_devJG_v0.6,2024.1.5,None,2024-08-04 17h06.48.745419 -0400,
114,0,114,0,594.5627052000491,,,,,,,,,594.5462904000888,594.5627052000491,597.5463661000831,,,599.5460142000811,baseline,SB05,01,False,2024-08-04_17h06.39.254,Gratings_vis_devJG_v0.6,2024.1.5,None,2024-08-04 17h06.48.745419 -0400,
115,0,115,0,599.5626997000072,,,,,,,,,599.5462706000544,599.5626997000072,602.5463915000437,,,604.5459706000984,baseline,SB05,01,False,2024-08-04_17h06.39.254,Gratings_vis_devJG_v0.6,2024.1.5,None,2024-08-04 17h06.48.745419 -0400,
116,0,116,0,604.5627211000537,,,,,,,,,604.5462556000566,604.5627211000537,607.5462669000262,,,609.5459938000422,baseline,SB05,01,False,2024-08-04_17h06.39.254,Gratings_vis_devJG_v0.6,2024.1.5,None,2024-08-04 17h06.48.745419 -0400,
117,0,117,0,609.562654600013,,,,,,,,,609.5462518000277,609.562654600013,612.5460924000945,,,614.5460933001013,baseline,SB05,01,False,2024-08-04_17h06.39.254,Gratings_vis_devJG_v0.6,2024.1.5,None,2024-08-04 17h06.48.745419 -0400,
118,0,118,0,614.5627774000168,,,,,,,,,614.5463610000443,614.5627774000168,617.5459993000841,,,619.5459614000283,baseline,SB05,01,False,2024-08-04_17h06.39.254,Gratings_vis_devJG_v0.6,2024.1.5,None,2024-08-04 17h06.48.745419 -0400,
119,0,119,0,619.5626094000181,,,,,,,,,619.5462348000146,619.5626094000181,622.5459710001014,,,624.5459210000699,baseline,SB05,01,False,2024-08-04_17h06.39.254,Gratings_vis_devJG_v0.6,2024.1.5,None,2024-08-04 17h06.48.745419 -0400,
