trials.thisRepN,trials.thisTrialN,trials.thisN,trials.thisIndex,thisRow.t,notes,nidaqTrigger.started,text_waiting_message.started,key_resp.started,nidaqTrigger.stopped,key_resp.keys,key_resp.rt,key_resp.duration,display_gratings.started,stim_grayScreen.started,stim_grating.started,display_gratings.stopped,Protocol ID,Subject ID,Session ID,Wait for Trigger,date,expName,psychopyVersion,frameRate,expStart,
,,,,,,0.005955500004347414,0.014511699962895364,0.014511699962895364,7.50293179997243,space,7.474418899975717,None,,,,,FOV1,GS11,01,False,2024-08-02_17h54.48.240,Gratings_vis_devJG_v0.6,2024.1.5,None,2024-08-02 17h55.19.374671 -0400,
0,0,0,0,7.6422659999807365,,,,,,,,,7.550318399968091,7.6422659999807365,10.56435409997357,12.564415899978485,FOV1,GS11,01,False,2024-08-02_17h54.48.240,Gratings_vis_devJG_v0.6,2024.1.5,None,2024-08-02 17h55.19.374671 -0400,
1,0,1,0,12.580952299991623,,,,,,,,,12.564617399999406,12.580952299991623,15.564648699946702,17.565378199971747,FOV1,GS11,01,False,2024-08-02_17h54.48.240,Gratings_vis_devJG_v0.6,2024.1.5,None,2024-08-02 17h55.19.374671 -0400,
2,0,2,0,17.581901900004596,,,,,,,,,17.565560999966692,17.581901900004596,20.56466289999662,22.56539929995779,FOV1,GS11,01,False,2024-08-02_17h54.48.240,Gratings_vis_devJG_v0.6,2024.1.5,None,2024-08-02 17h55.19.374671 -0400,
3,0,3,0,22.58212509995792,,,,,,,,,22.56559729995206,22.58212509995792,25.564591499976814,27.564454899984412,FOV1,GS11,01,False,2024-08-02_17h54.48.240,Gratings_vis_devJG_v0.6,2024.1.5,None,2024-08-02 17h55.19.374671 -0400,
4,0,4,0,27.58249689999502,,,,,,,,,27.56464469997445,27.58249689999502,30.547926099970937,32.56439029995818,FOV1,GS11,01,False,2024-08-02_17h54.48.240,Gratings_vis_devJG_v0.6,2024.1.5,None,2024-08-02 17h55.19.374671 -0400,
5,0,5,0,32.58249599998817,,,,,,,,,32.56460669997614,32.58249599998817,35.56453429994872,37.56435629999032,FOV1,GS11,01,False,2024-08-02_17h54.48.240,Gratings_vis_devJG_v0.6,2024.1.5,None,2024-08-02 17h55.19.374671 -0400,
6,0,6,0,37.58291639998788,,,,,,,,,37.56455319997622,37.58291639998788,40.564512399956584,42.564340299984906,FOV1,GS11,01,False,2024-08-02_17h54.48.240,Gratings_vis_devJG_v0.6,2024.1.5,None,2024-08-02 17h55.19.374671 -0400,
7,0,7,0,42.58097519999137,,,,,,,,,42.5645384999807,42.58097519999137,45.54801879997831,47.56430659996113,FOV1,GS11,01,False,2024-08-02_17h54.48.240,Gratings_vis_devJG_v0.6,2024.1.5,None,2024-08-02 17h55.19.374671 -0400,
8,0,8,0,47.580928199982736,,,,,,,,,47.56449909997173,47.580928199982736,50.56466380000347,52.5644106999971,FOV1,GS11,01,False,2024-08-02_17h54.48.240,Gratings_vis_devJG_v0.6,2024.1.5,None,2024-08-02 17h55.19.374671 -0400,
9,0,9,0,52.58090749999974,,,,,,,,,52.56458730000304,52.58090749999974,55.56451439997181,57.56431279995013,FOV1,GS11,01,False,2024-08-02_17h54.48.240,Gratings_vis_devJG_v0.6,2024.1.5,None,2024-08-02 17h55.19.374671 -0400,
10,0,10,0,57.58089270000346,,,,,,,,,57.564500299980864,57.58089270000346,60.56448999996064,62.564422699972056,FOV1,GS11,01,False,2024-08-02_17h54.48.240,Gratings_vis_devJG_v0.6,2024.1.5,None,2024-08-02 17h55.19.374671 -0400,
11,0,11,0,62.58089809998637,,,,,,,,,62.564604399958625,62.58089809998637,65.54804490000242,67.56442989996867,FOV1,GS11,01,False,2024-08-02_17h54.48.240,Gratings_vis_devJG_v0.6,2024.1.5,None,2024-08-02 17h55.19.374671 -0400,
12,0,12,0,67.58092189999297,,,,,,,,,67.56462579994695,67.58092189999297,70.54843849997269,72.56429079995723,FOV1,GS11,01,False,2024-08-02_17h54.48.240,Gratings_vis_devJG_v0.6,2024.1.5,None,2024-08-02 17h55.19.374671 -0400,
13,0,13,0,72.58081479999237,,,,,,,,,72.5644939999911,72.58081479999237,75.54867629997898,77.56414579995908,FOV1,GS11,01,False,2024-08-02_17h54.48.240,Gratings_vis_devJG_v0.6,2024.1.5,None,2024-08-02 17h55.19.374671 -0400,
14,0,14,0,77.58084449998569,,,,,,,,,77.56434079998871,77.58084449998569,80.54893769999035,82.56431190000148,FOV1,GS11,01,False,2024-08-02_17h54.48.240,Gratings_vis_devJG_v0.6,2024.1.5,None,2024-08-02 17h55.19.374671 -0400,
15,0,15,0,82.58093149994966,,,,,,,,,82.56450340000447,82.58093149994966,85.54924779996509,87.56454900000244,FOV1,GS11,01,False,2024-08-02_17h54.48.240,Gratings_vis_devJG_v0.6,2024.1.5,None,2024-08-02 17h55.19.374671 -0400,
16,0,16,0,87.58119769999757,,,,,,,,,87.56473639997421,87.58119769999757,90.54956590000074,92.5640983999474,FOV1,GS11,01,False,2024-08-02_17h54.48.240,Gratings_vis_devJG_v0.6,2024.1.5,None,2024-08-02 17h55.19.374671 -0400,
17,0,17,0,92.58060379995732,,,,,,,,,92.56432179996045,92.58060379995732,95.56451289996039,97.56409559998428,FOV1,GS11,01,False,2024-08-02_17h54.48.240,Gratings_vis_devJG_v0.6,2024.1.5,None,2024-08-02 17h55.19.374671 -0400,
18,0,18,0,97.5821504999767,,,,,,,,,97.56428559997585,97.5821504999767,100.56456549995346,102.56391879997682,FOV1,GS11,01,False,2024-08-02_17h54.48.240,Gratings_vis_devJG_v0.6,2024.1.5,None,2024-08-02 17h55.19.374671 -0400,
19,0,19,0,102.58064299996477,,,,,,,,,102.56411549996119,102.58064299996477,105.5640706999693,107.56385129998671,FOV1,GS11,01,False,2024-08-02_17h54.48.240,Gratings_vis_devJG_v0.6,2024.1.5,None,2024-08-02 17h55.19.374671 -0400,
20,0,20,0,107.58049969997955,,,,,,,,,107.56405799998902,107.58049969997955,110.56399729999248,112.56381599995075,FOV1,GS11,01,False,2024-08-02_17h54.48.240,Gratings_vis_devJG_v0.6,2024.1.5,None,2024-08-02 17h55.19.374671 -0400,
21,0,21,0,112.58046069997363,,,,,,,,,112.5640031999792,112.58046069997363,115.5639811999863,117.56451809999999,FOV1,GS11,01,False,2024-08-02_17h54.48.240,Gratings_vis_devJG_v0.6,2024.1.5,None,2024-08-02 17h55.19.374671 -0400,
22,0,22,0,117.5804788999958,,,,,,,,,117.56494819995714,117.5804788999958,120.56393909995677,122.56386629998451,FOV1,GS11,01,False,2024-08-02_17h54.48.240,Gratings_vis_devJG_v0.6,2024.1.5,None,2024-08-02 17h55.19.374671 -0400,
23,0,23,0,122.58044849999715,,,,,,,,,122.56407629995374,122.58044849999715,125.56395079998765,127.56386609998299,FOV1,GS11,01,False,2024-08-02_17h54.48.240,Gratings_vis_devJG_v0.6,2024.1.5,None,2024-08-02 17h55.19.374671 -0400,
24,0,24,0,127.58052419999149,,,,,,,,,127.56405689998064,127.58052419999149,130.56416819995502,132.5638561999658,FOV1,GS11,01,False,2024-08-02_17h54.48.240,Gratings_vis_devJG_v0.6,2024.1.5,None,2024-08-02 17h55.19.374671 -0400,
25,0,25,0,132.58053539996035,,,,,,,,,132.56405109999469,132.58053539996035,135.56398059998173,137.5638502999791,FOV1,GS11,01,False,2024-08-02_17h54.48.240,Gratings_vis_devJG_v0.6,2024.1.5,None,2024-08-02 17h55.19.374671 -0400,
26,0,26,0,137.58066789997974,,,,,,,,,137.56406229996355,137.58066789997974,140.56426329998067,142.56378989998484,FOV1,GS11,01,False,2024-08-02_17h54.48.240,Gratings_vis_devJG_v0.6,2024.1.5,None,2024-08-02 17h55.19.374671 -0400,
27,0,27,0,142.58042749995366,,,,,,,,,142.56397349998588,142.58042749995366,145.56385539995972,147.56375499995193,FOV1,GS11,01,False,2024-08-02_17h54.48.240,Gratings_vis_devJG_v0.6,2024.1.5,None,2024-08-02 17h55.19.374671 -0400,
28,0,28,0,147.58037009998225,,,,,,,,,147.5639467999572,147.58037009998225,150.563770299952,152.56378539995058,FOV1,GS11,01,False,2024-08-02_17h54.48.240,Gratings_vis_devJG_v0.6,2024.1.5,None,2024-08-02 17h55.19.374671 -0400,
29,0,29,0,152.58039580000332,,,,,,,,,152.56399169994984,152.58039580000332,155.5638127999846,157.56367529998533,FOV1,GS11,01,False,2024-08-02_17h54.48.240,Gratings_vis_devJG_v0.6,2024.1.5,None,2024-08-02 17h55.19.374671 -0400,
30,0,30,0,157.58034089999273,,,,,,,,,157.56387529999483,157.58034089999273,160.56375589995878,162.56372539995937,FOV1,GS11,01,False,2024-08-02_17h54.48.240,Gratings_vis_devJG_v0.6,2024.1.5,None,2024-08-02 17h55.19.374671 -0400,
31,0,31,0,162.58033309999155,,,,,,,,,162.56395729997894,162.58033309999155,165.56371139996918,167.56364269996993,FOV1,GS11,01,False,2024-08-02_17h54.48.240,Gratings_vis_devJG_v0.6,2024.1.5,None,2024-08-02 17h55.19.374671 -0400,
32,0,32,0,167.5805647999514,,,,,,,,,167.56383299996378,167.5805647999514,170.5636781999492,172.56362719996832,FOV1,GS11,01,False,2024-08-02_17h54.48.240,Gratings_vis_devJG_v0.6,2024.1.5,None,2024-08-02 17h55.19.374671 -0400,
33,0,33,0,172.58025259996066,,,,,,,,,172.56380959996022,172.58025259996066,175.56369329994777,177.56356629997026,FOV1,GS11,01,False,2024-08-02_17h54.48.240,Gratings_vis_devJG_v0.6,2024.1.5,None,2024-08-02 17h55.19.374671 -0400,
34,0,34,0,177.5802775999764,,,,,,,,,177.56375849997858,177.5802775999764,180.5636582999723,182.56361209996976,FOV1,GS11,01,False,2024-08-02_17h54.48.240,Gratings_vis_devJG_v0.6,2024.1.5,None,2024-08-02 17h55.19.374671 -0400,
35,0,35,0,182.58023959997809,,,,,,,,,182.56379789998755,182.58023959997809,185.5639798999764,187.56365169998026,FOV1,GS11,01,False,2024-08-02_17h54.48.240,Gratings_vis_devJG_v0.6,2024.1.5,None,2024-08-02 17h55.19.374671 -0400,
36,0,36,0,187.5801969000022,,,,,,,,,187.56383489997825,187.5801969000022,190.56367109995335,192.56353139999555,FOV1,GS11,01,False,2024-08-02_17h54.48.240,Gratings_vis_devJG_v0.6,2024.1.5,None,2024-08-02 17h55.19.374671 -0400,
37,0,37,0,192.58017599995947,,,,,,,,,192.56371529999888,192.58017599995947,195.56356729997788,197.56350859999657,FOV1,GS11,01,False,2024-08-02_17h54.48.240,Gratings_vis_devJG_v0.6,2024.1.5,None,2024-08-02 17h55.19.374671 -0400,
38,0,38,0,197.58009789994685,,,,,,,,,197.56369989999803,197.58009789994685,200.56352189998142,202.56348309997702,FOV1,GS11,01,False,2024-08-02_17h54.48.240,Gratings_vis_devJG_v0.6,2024.1.5,None,2024-08-02 17h55.19.374671 -0400,
39,0,39,0,202.58009579998907,,,,,,,,,202.56367659999523,202.58009579998907,205.56350499996915,207.56352369999513,FOV1,GS11,01,False,2024-08-02_17h54.48.240,Gratings_vis_devJG_v0.6,2024.1.5,None,2024-08-02 17h55.19.374671 -0400,
40,0,40,0,207.58006579999346,,,,,,,,,207.5637146999943,207.58006579999346,210.56351149996044,212.5634000999853,FOV1,GS11,01,False,2024-08-02_17h54.48.240,Gratings_vis_devJG_v0.6,2024.1.5,None,2024-08-02 17h55.19.374671 -0400,
41,0,41,0,212.58004909998272,,,,,,,,,212.56361229997128,212.58004909998272,215.5636652999674,217.56337029999122,FOV1,GS11,01,False,2024-08-02_17h54.48.240,Gratings_vis_devJG_v0.6,2024.1.5,None,2024-08-02 17h55.19.374671 -0400,
42,0,42,0,217.58008109999355,,,,,,,,,217.56356549996417,217.58008109999355,220.56348670000443,222.56333340000128,FOV1,GS11,01,False,2024-08-02_17h54.48.240,Gratings_vis_devJG_v0.6,2024.1.5,None,2024-08-02 17h55.19.374671 -0400,
43,0,43,0,222.58003939996706,,,,,,,,,222.56353089999175,222.58003939996706,225.56350609997753,227.56350739998743,FOV1,GS11,01,False,2024-08-02_17h54.48.240,Gratings_vis_devJG_v0.6,2024.1.5,None,2024-08-02 17h55.19.374671 -0400,
44,0,44,0,227.57992639997974,,,,,,,,,227.56371739995666,227.57992639997974,230.56345659994986,232.56334249995416,FOV1,GS11,01,False,2024-08-02_17h54.48.240,Gratings_vis_devJG_v0.6,2024.1.5,None,2024-08-02 17h55.19.374671 -0400,
45,0,45,0,232.579957799986,,,,,,,,,232.5635415999568,232.579957799986,235.56343859998742,237.56330919999164,FOV1,GS11,01,False,2024-08-02_17h54.48.240,Gratings_vis_devJG_v0.6,2024.1.5,None,2024-08-02 17h55.19.374671 -0400,
46,0,46,0,237.57988879998447,,,,,,,,,237.56350549997296,237.57988879998447,240.56344559998251,242.5632629999891,FOV1,GS11,01,False,2024-08-02_17h54.48.240,Gratings_vis_devJG_v0.6,2024.1.5,None,2024-08-02 17h55.19.374671 -0400,
47,0,47,0,242.57987519999733,,,,,,,,,242.56345979997423,242.57987519999733,245.56343959999504,247.56324079999467,FOV1,GS11,01,False,2024-08-02_17h54.48.240,Gratings_vis_devJG_v0.6,2024.1.5,None,2024-08-02 17h55.19.374671 -0400,
48,0,48,0,247.57983659999445,,,,,,,,,247.56342979997862,247.57983659999445,250.56356039998354,252.56320489995414,FOV1,GS11,01,False,2024-08-02_17h54.48.240,Gratings_vis_devJG_v0.6,2024.1.5,None,2024-08-02 17h55.19.374671 -0400,
49,0,49,0,252.57982469996205,,,,,,,,,252.56338909995975,252.57982469996205,255.5633872000035,257.56324289995246,FOV1,GS11,01,False,2024-08-02_17h54.48.240,Gratings_vis_devJG_v0.6,2024.1.5,None,2024-08-02 17h55.19.374671 -0400,
50,0,50,0,257.5797777999542,,,,,,,,,257.5634367999737,257.5797777999542,260.5633826999692,262.5633358999621,FOV1,GS11,01,False,2024-08-02_17h54.48.240,Gratings_vis_devJG_v0.6,2024.1.5,None,2024-08-02 17h55.19.374671 -0400,
51,0,51,0,262.57983319996856,,,,,,,,,262.56352440000046,262.57983319996856,265.5635476000025,267.5631405999884,FOV1,GS11,01,False,2024-08-02_17h54.48.240,Gratings_vis_devJG_v0.6,2024.1.5,None,2024-08-02 17h55.19.374671 -0400,
52,0,52,0,267.5797709999606,,,,,,,,,267.56334769999376,267.5797709999606,270.56340819998877,272.5631914999685,FOV1,GS11,01,False,2024-08-02_17h54.48.240,Gratings_vis_devJG_v0.6,2024.1.5,None,2024-08-02 17h55.19.374671 -0400,
53,0,53,0,272.5797345999745,,,,,,,,,272.56339089997346,272.5797345999745,275.56323719996726,277.5630549999769,FOV1,GS11,01,False,2024-08-02_17h54.48.240,Gratings_vis_devJG_v0.6,2024.1.5,None,2024-08-02 17h55.19.374671 -0400,
54,0,54,0,277.5797205999843,,,,,,,,,277.5632458999753,277.5797205999843,280.5631876999978,282.56302149995463,FOV1,GS11,01,False,2024-08-02_17h54.48.240,Gratings_vis_devJG_v0.6,2024.1.5,None,2024-08-02 17h55.19.374671 -0400,
55,0,55,0,282.57970389997354,,,,,,,,,282.5632284999592,282.57970389997354,285.5632160999812,287.56299919995945,FOV1,GS11,01,False,2024-08-02_17h54.48.240,Gratings_vis_devJG_v0.6,2024.1.5,None,2024-08-02 17h55.19.374671 -0400,
56,0,56,0,287.5796672999859,,,,,,,,,287.563187199994,287.5796672999859,290.56322379998164,292.56323339999653,FOV1,GS11,01,False,2024-08-02_17h54.48.240,Gratings_vis_devJG_v0.6,2024.1.5,None,2024-08-02 17h55.19.374671 -0400,
57,0,57,0,292.57966999994824,,,,,,,,,292.5634139999747,292.57966999994824,295.563126699999,297.56304029998137,FOV1,GS11,01,False,2024-08-02_17h54.48.240,Gratings_vis_devJG_v0.6,2024.1.5,None,2024-08-02 17h55.19.374671 -0400,
58,0,58,0,297.5795799999614,,,,,,,,,297.56327109999256,297.5795799999614,300.5631094999844,302.56324629997835,FOV1,GS11,01,False,2024-08-02_17h54.48.240,Gratings_vis_devJG_v0.6,2024.1.5,None,2024-08-02 17h55.19.374671 -0400,
59,0,59,0,302.57959859998664,,,,,,,,,302.56344779999927,302.57959859998664,305.5650739999837,307.5629009999684,FOV1,GS11,01,False,2024-08-02_17h54.48.240,Gratings_vis_devJG_v0.6,2024.1.5,None,2024-08-02 17h55.19.374671 -0400,
