trials.thisRepN,trials.thisTrialN,trials.thisN,trials.thisIndex,thisRow.t,notes,nidaqTrigger.started,text_waiting_message.started,key_resp.started,nidaqTrigger.stopped,key_resp.keys,key_resp.rt,key_resp.duration,display_gratings.started,stim_grayScreen.started,stim_grating.started,stim_grayScreen.stopped,stim_grating.stopped,display_gratings.stopped,Protocol ID,Subject ID,Session ID,Wait for Trigger,date,expName,psychopyVersion,frameRate,expStart,
,,,,,,0.06864479999057949,0.07074410002678633,0.07074410002678633,11.087192800012417,space,11.006388899986632,None,,,,,,,sal,SB04,01,False,2024-08-07_14h07.05.800,Gratings_vis_devJG_v0.6,2024.1.5,None,2024-08-07 14h07.16.190205 -0400,
0,0,0,0,11.125241699977778,,,,,,,,,11.1233095000498,11.125241699977778,14.133027900010347,16.116303300019354,16.116303300019354,16.099807400023565,sal,SB04,01,False,2024-08-07_14h07.05.800,Gratings_vis_devJG_v0.6,2024.1.5,None,2024-08-07 14h07.16.190205 -0400,
1,0,1,0,16.116303300019354,,,,,,,,,16.100078899995424,16.132972300052643,19.13308240007609,21.116446700063534,21.116446700063534,21.099964900058694,sal,SB04,01,False,2024-08-07_14h07.05.800,Gratings_vis_devJG_v0.6,2024.1.5,None,2024-08-07 14h07.16.190205 -0400,
2,0,2,0,21.116446700063534,,,,,,,,,21.100204700022005,21.133431100053713,24.133193999994546,26.116718800039962,26.116718800039962,26.10068869998213,sal,SB04,01,False,2024-08-07_14h07.05.800,Gratings_vis_devJG_v0.6,2024.1.5,None,2024-08-07 14h07.16.190205 -0400,
3,0,3,0,26.116718800039962,,,,,,,,,26.100952800014056,26.134181400062516,29.133153500035405,31.116338800056837,31.116338800056837,31.10076719999779,sal,SB04,01,False,2024-08-07_14h07.05.800,Gratings_vis_devJG_v0.6,2024.1.5,None,2024-08-07 14h07.16.190205 -0400,
4,0,4,0,31.116338800056837,,,,,,,,,31.101030400022864,31.133734400034882,34.13467110006604,36.117585200001486,36.117585200001486,36.09982190001756,sal,SB04,01,False,2024-08-07_14h07.05.800,Gratings_vis_devJG_v0.6,2024.1.5,None,2024-08-07 14h07.16.190205 -0400,
5,0,5,0,36.117585200001486,,,,,,,,,36.10008640005253,36.13384769996628,39.13308250007685,41.11770930001512,41.11770930001512,41.09987939998973,sal,SB04,01,False,2024-08-07_14h07.05.800,Gratings_vis_devJG_v0.6,2024.1.5,None,2024-08-07 14h07.16.190205 -0400,
6,0,6,0,41.11770930001512,,,,,,,,,41.100126300007105,41.1329204000067,44.133296100073494,46.117645199992694,46.117645199992694,46.10025320004206,sal,SB04,01,False,2024-08-07_14h07.05.800,Gratings_vis_devJG_v0.6,2024.1.5,None,2024-08-07 14h07.16.190205 -0400,
7,0,7,0,46.117645199992694,,,,,,,,,46.1004937000107,46.13468560006004,49.13302589999512,51.11625990003813,51.11625990003813,51.09985970007256,sal,SB04,01,False,2024-08-07_14h07.05.800,Gratings_vis_devJG_v0.6,2024.1.5,None,2024-08-07 14h07.16.190205 -0400,
8,0,8,0,51.11625990003813,,,,,,,,,51.10012229997665,51.13475850003306,54.13306100002956,56.116153400042094,56.116153400042094,56.099737900076434,sal,SB04,01,False,2024-08-07_14h07.05.800,Gratings_vis_devJG_v0.6,2024.1.5,None,2024-08-07 14h07.16.190205 -0400,
9,0,9,0,56.116153400042094,,,,,,,,,56.09999220003374,56.13301530003082,59.133062300039455,61.11622580001131,61.11622580001131,61.09987729997374,sal,SB04,01,False,2024-08-07_14h07.05.800,Gratings_vis_devJG_v0.6,2024.1.5,None,2024-08-07 14h07.16.190205 -0400,
10,0,10,0,61.11622580001131,,,,,,,,,61.10013500007335,61.132795899990015,64.13322399999015,66.11609939998016,66.11609939998016,66.09975200006738,sal,SB04,01,False,2024-08-07_14h07.05.800,Gratings_vis_devJG_v0.6,2024.1.5,None,2024-08-07 14h07.16.190205 -0400,
11,0,11,0,66.11609939998016,,,,,,,,,66.09999330004212,66.13277100003324,69.13344230002258,71.1163363000378,71.1163363000378,71.09990010003094,sal,SB04,01,False,2024-08-07_14h07.05.800,Gratings_vis_devJG_v0.6,2024.1.5,None,2024-08-07 14h07.16.190205 -0400,
12,0,12,0,71.1163363000378,,,,,,,,,71.10015020007268,71.13276609999593,74.13373950007372,76.11614409997128,76.11614409997128,76.10004379996099,sal,SB04,01,False,2024-08-07_14h07.05.800,Gratings_vis_devJG_v0.6,2024.1.5,None,2024-08-07 14h07.16.190205 -0400,
13,0,13,0,76.11614409997128,,,,,,,,,76.10028899996541,76.13281960005406,79.13397269998677,81.11607360001653,81.11607360001653,81.09969190007541,sal,SB04,01,False,2024-08-07_14h07.05.800,Gratings_vis_devJG_v0.6,2024.1.5,None,2024-08-07 14h07.16.190205 -0400,
14,0,14,0,81.11607360001653,,,,,,,,,81.09994400001597,81.13276090007275,84.13433989998884,86.11635100003332,86.11635100003332,86.10004140005913,sal,SB04,01,False,2024-08-07_14h07.05.800,Gratings_vis_devJG_v0.6,2024.1.5,None,2024-08-07 14h07.16.190205 -0400,
15,0,15,0,86.11635100003332,,,,,,,,,86.10031100001652,86.13294280006085,89.13457250001375,91.11645770003088,91.11645770003088,91.09998820000328,sal,SB04,01,False,2024-08-07_14h07.05.800,Gratings_vis_devJG_v0.6,2024.1.5,None,2024-08-07 14h07.16.190205 -0400,
16,0,16,0,91.11645770003088,,,,,,,,,91.10022999998182,91.13317619997542,94.13489200000186,96.11666359996889,96.11666359996889,96.10023199999705,sal,SB04,01,False,2024-08-07_14h07.05.800,Gratings_vis_devJG_v0.6,2024.1.5,None,2024-08-07 14h07.16.190205 -0400,
17,0,17,0,96.11666359996889,,,,,,,,,96.10048590006772,96.13326969998889,99.13522960001137,101.11698599997908,101.11698599997908,101.10047780000605,sal,SB04,01,False,2024-08-07_14h07.05.800,Gratings_vis_devJG_v0.6,2024.1.5,None,2024-08-07 14h07.16.190205 -0400,
18,0,18,0,101.11698599997908,,,,,,,,,101.10073130007368,101.13366439996753,104.13552520005032,106.1172434000764,106.1172434000764,106.10113890003413,sal,SB04,01,False,2024-08-07_14h07.05.800,Gratings_vis_devJG_v0.6,2024.1.5,None,2024-08-07 14h07.16.190205 -0400,
19,0,19,0,106.1172434000764,,,,,,,,,106.10139209998306,106.13390160002746,109.1330516000744,111.11583420005627,111.11583420005627,111.09939069999382,sal,SB04,01,False,2024-08-07_14h07.05.800,Gratings_vis_devJG_v0.6,2024.1.5,None,2024-08-07 14h07.16.190205 -0400,
20,0,20,0,111.11583420005627,,,,,,,,,111.09963640000205,111.13268200005405,114.13280400005169,116.11574190005194,116.11574190005194,116.09939720004331,sal,SB04,01,False,2024-08-07_14h07.05.800,Gratings_vis_devJG_v0.6,2024.1.5,None,2024-08-07 14h07.16.190205 -0400,
21,0,21,0,116.11574190005194,,,,,,,,,116.09965870005544,116.13243640004657,119.13268999999855,121.11566580005456,121.11566580005456,121.09949459997006,sal,SB04,01,False,2024-08-07_14h07.05.800,Gratings_vis_devJG_v0.6,2024.1.5,None,2024-08-07 14h07.16.190205 -0400,
22,0,22,0,121.11566580005456,,,,,,,,,121.09975809999742,121.13244740001392,124.1327838000143,126.11568639997859,126.11568639997859,126.09986039996147,sal,SB04,01,False,2024-08-07_14h07.05.800,Gratings_vis_devJG_v0.6,2024.1.5,None,2024-08-07 14h07.16.190205 -0400,
23,0,23,0,126.11568639997859,,,,,,,,,126.10012379998807,126.13230559998192,129.13252199999988,131.11566430004314,131.11566430004314,131.09925860003568,sal,SB04,01,False,2024-08-07_14h07.05.800,Gratings_vis_devJG_v0.6,2024.1.5,None,2024-08-07 14h07.16.190205 -0400,
24,0,24,0,131.11566430004314,,,,,,,,,131.09949609998148,131.1322921999963,134.13247559999581,136.1156662000576,136.1156662000576,136.09921010001563,sal,SB04,01,False,2024-08-07_14h07.05.800,Gratings_vis_devJG_v0.6,2024.1.5,None,2024-08-07 14h07.16.190205 -0400,
25,0,25,0,136.1156662000576,,,,,,,,,136.0994596000528,136.13238239998464,139.1325511999894,141.11579569999594,141.11579569999594,141.09919900004752,sal,SB04,01,False,2024-08-07_14h07.05.800,Gratings_vis_devJG_v0.6,2024.1.5,None,2024-08-07 14h07.16.190205 -0400,
26,0,26,0,141.11579569999594,,,,,,,,,141.09943830000702,141.13243680004962,144.13251809997018,146.11556800000835,146.11556800000835,146.09963080007583,sal,SB04,01,False,2024-08-07_14h07.05.800,Gratings_vis_devJG_v0.6,2024.1.5,None,2024-08-07 14h07.16.190205 -0400,
27,0,27,0,146.11556800000835,,,,,,,,,146.09992169996258,146.13235400000121,149.13250890001655,151.1156407999806,151.1156407999806,151.0995525000617,sal,SB04,01,False,2024-08-07_14h07.05.800,Gratings_vis_devJG_v0.6,2024.1.5,None,2024-08-07 14h07.16.190205 -0400,
28,0,28,0,151.1156407999806,,,,,,,,,151.09980790002737,151.13249550003093,154.13244219997432,156.1155989000108,156.1155989000108,156.0991548000602,sal,SB04,01,False,2024-08-07_14h07.05.800,Gratings_vis_devJG_v0.6,2024.1.5,None,2024-08-07 14h07.16.190205 -0400,
29,0,29,0,156.1155989000108,,,,,,,,,156.09939450002275,156.13226460001897,159.1325124000432,161.1155617000768,161.1155617000768,161.09908870002255,sal,SB04,01,False,2024-08-07_14h07.05.800,Gratings_vis_devJG_v0.6,2024.1.5,None,2024-08-07 14h07.16.190205 -0400,
30,0,30,0,161.1155617000768,,,,,,,,,161.09934710001107,161.13224940001965,164.13240740005858,166.11557530006394,166.11557530006394,166.09901780006476,sal,SB04,01,False,2024-08-07_14h07.05.800,Gratings_vis_devJG_v0.6,2024.1.5,None,2024-08-07 14h07.16.190205 -0400,
31,0,31,0,166.11557530006394,,,,,,,,,166.09925670002121,166.1322102000704,169.13248260004912,171.11560010001995,171.11560010001995,171.0990680999821,sal,SB04,01,False,2024-08-07_14h07.05.800,Gratings_vis_devJG_v0.6,2024.1.5,None,2024-08-07 14h07.16.190205 -0400,
32,0,32,0,171.11560010001995,,,,,,,,,171.0993080000626,171.1321855999995,174.13314719998743,176.11552420002408,176.11552420002408,176.09945680003148,sal,SB04,01,False,2024-08-07_14h07.05.800,Gratings_vis_devJG_v0.6,2024.1.5,None,2024-08-07 14h07.16.190205 -0400,
33,0,33,0,176.11552420002408,,,,,,,,,176.09971590002533,176.13227120006923,179.13252330000978,181.11548769997898,181.11548769997898,181.0990627000574,sal,SB04,01,False,2024-08-07_14h07.05.800,Gratings_vis_devJG_v0.6,2024.1.5,None,2024-08-07 14h07.16.190205 -0400,
34,0,34,0,181.11548769997898,,,,,,,,,181.0993085000664,181.13217510003597,184.1323129000375,186.11545469996054,186.11545469996054,186.0993090000702,sal,SB04,01,False,2024-08-07_14h07.05.800,Gratings_vis_devJG_v0.6,2024.1.5,None,2024-08-07 14h07.16.190205 -0400,
35,0,35,0,186.11545469996054,,,,,,,,,186.09955679997802,186.13217100000475,189.13225530006457,191.11549400002696,191.11549400002696,191.09933580004144,sal,SB04,01,False,2024-08-07_14h07.05.800,Gratings_vis_devJG_v0.6,2024.1.5,None,2024-08-07 14h07.16.190205 -0400,
36,0,36,0,191.11549400002696,,,,,,,,,191.09958729997743,191.13212029996794,194.13224469998386,196.11545959999785,196.11545959999785,196.09942370001227,sal,SB04,01,False,2024-08-07_14h07.05.800,Gratings_vis_devJG_v0.6,2024.1.5,None,2024-08-07 14h07.16.190205 -0400,
37,0,37,0,196.11545959999785,,,,,,,,,196.09969120007008,196.13208570005372,199.13227190007456,201.1154252999695,201.1154252999695,201.09894120006356,sal,SB04,01,False,2024-08-07_14h07.05.800,Gratings_vis_devJG_v0.6,2024.1.5,None,2024-08-07 14h07.16.190205 -0400,
38,0,38,0,201.1154252999695,,,,,,,,,201.0992001000559,201.1320728000719,204.13220950006507,206.11537080002017,206.11537080002017,206.09934020007495,sal,SB04,01,False,2024-08-07_14h07.05.800,Gratings_vis_devJG_v0.6,2024.1.5,None,2024-08-07 14h07.16.190205 -0400,
39,0,39,0,206.11537080002017,,,,,,,,,206.09959820006043,206.1320521000307,209.13220039999578,211.1155176999746,211.1155176999746,211.09899379999842,sal,SB04,01,False,2024-08-07_14h07.05.800,Gratings_vis_devJG_v0.6,2024.1.5,None,2024-08-07 14h07.16.190205 -0400,
40,0,40,0,211.1155176999746,,,,,,,,,211.09923930000514,211.13198710000142,214.13204659998883,216.1153570000315,216.1153570000315,216.0994094000198,sal,SB04,01,False,2024-08-07_14h07.05.800,Gratings_vis_devJG_v0.6,2024.1.5,None,2024-08-07 14h07.16.190205 -0400,
41,0,41,0,216.1153570000315,,,,,,,,,216.09965860005468,216.1319687999785,219.13230549998116,221.11559649999253,221.11559649999253,221.09889310004655,sal,SB04,01,False,2024-08-07_14h07.05.800,Gratings_vis_devJG_v0.6,2024.1.5,None,2024-08-07 14h07.16.190205 -0400,
42,0,42,0,221.11559649999253,,,,,,,,,221.0991504000267,221.1322247000644,224.13241229997948,226.11528620007448,226.11528620007448,226.09924390004016,sal,SB04,01,False,2024-08-07_14h07.05.800,Gratings_vis_devJG_v0.6,2024.1.5,None,2024-08-07 14h07.16.190205 -0400,
43,0,43,0,226.11528620007448,,,,,,,,,226.09952380007599,226.13191150000785,229.13224189996254,231.11527129996102,231.11527129996102,231.0988085999852,sal,SB04,01,False,2024-08-07_14h07.05.800,Gratings_vis_devJG_v0.6,2024.1.5,None,2024-08-07 14h07.16.190205 -0400,
44,0,44,0,231.11527129996102,,,,,,,,,231.09906110004522,231.13194470002782,234.1323098000139,236.1152225000551,236.1152225000551,236.09879289998207,sal,SB04,01,False,2024-08-07_14h07.05.800,Gratings_vis_devJG_v0.6,2024.1.5,None,2024-08-07 14h07.16.190205 -0400,
45,0,45,0,236.1152225000551,,,,,,,,,236.09904750005808,236.13190709997434,239.1322397000622,241.1151909000473,241.1151909000473,241.09873369999696,sal,SB04,01,False,2024-08-07_14h07.05.800,Gratings_vis_devJG_v0.6,2024.1.5,None,2024-08-07 14h07.16.190205 -0400,
46,0,46,0,241.1151909000473,,,,,,,,,241.09898490004707,241.13189760001842,244.13219729997218,246.1151649999665,246.1151649999665,246.0987132000737,sal,SB04,01,False,2024-08-07_14h07.05.800,Gratings_vis_devJG_v0.6,2024.1.5,None,2024-08-07 14h07.16.190205 -0400,
47,0,47,0,246.1151649999665,,,,,,,,,246.09896319999825,246.1318953000009,249.1319729000097,251.11513459996786,251.11513459996786,251.09906230005436,sal,SB04,01,False,2024-08-07_14h07.05.800,Gratings_vis_devJG_v0.6,2024.1.5,None,2024-08-07 14h07.16.190205 -0400,
48,0,48,0,251.11513459996786,,,,,,,,,251.09931760001928,251.13179270003457,254.13191260001622,256.11511060001794,256.11511060001794,256.0986395999789,sal,SB04,01,False,2024-08-07_14h07.05.800,Gratings_vis_devJG_v0.6,2024.1.5,None,2024-08-07 14h07.16.190205 -0400,
49,0,49,0,256.11511060001794,,,,,,,,,256.098909500055,256.13173889997415,259.13190240005497,261.11502879997715,261.11502879997715,261.09898370003793,sal,SB04,01,False,2024-08-07_14h07.05.800,Gratings_vis_devJG_v0.6,2024.1.5,None,2024-08-07 14h07.16.190205 -0400,
50,0,50,0,261.11502879997715,,,,,,,,,261.09923100005835,261.13169359997846,264.1318586000707,266.1150712000672,266.1150712000672,266.0986120000016,sal,SB04,01,False,2024-08-07_14h07.05.800,Gratings_vis_devJG_v0.6,2024.1.5,None,2024-08-07 14h07.16.190205 -0400,
51,0,51,0,266.1150712000672,,,,,,,,,266.0988606000319,266.13168610003777,269.13183179998305,271.11501670000143,271.11501670000143,271.09900619997643,sal,SB04,01,False,2024-08-07_14h07.05.800,Gratings_vis_devJG_v0.6,2024.1.5,None,2024-08-07 14h07.16.190205 -0400,
52,0,52,0,271.11501670000143,,,,,,,,,271.0992488999618,271.13168300001416,274.13186049996875,276.1150734999683,276.1150734999683,276.09854150004685,sal,SB04,01,False,2024-08-07_14h07.05.800,Gratings_vis_devJG_v0.6,2024.1.5,None,2024-08-07 14h07.16.190205 -0400,
53,0,53,0,276.1150734999683,,,,,,,,,276.0987874000566,276.13173510006163,279.1318594000768,281.1149615000468,281.1149615000468,281.0985429000575,sal,SB04,01,False,2024-08-07_14h07.05.800,Gratings_vis_devJG_v0.6,2024.1.5,None,2024-08-07 14h07.16.190205 -0400,
54,0,54,0,281.1149615000468,,,,,,,,,281.0988207999617,281.1316441000672,284.1322796000168,286.11496639996767,286.11496639996767,286.0985225000186,sal,SB04,01,False,2024-08-07_14h07.05.800,Gratings_vis_devJG_v0.6,2024.1.5,None,2024-08-07 14h07.16.190205 -0400,
55,0,55,0,286.11496639996767,,,,,,,,,286.0987798999995,286.13172000006307,289.13181350007653,291.1149996999884,291.1149996999884,291.09850089997053,sal,SB04,01,False,2024-08-07_14h07.05.800,Gratings_vis_devJG_v0.6,2024.1.5,None,2024-08-07 14h07.16.190205 -0400,
56,0,56,0,291.1149996999884,,,,,,,,,291.09875910007395,291.1316299000755,294.13181649998296,296.1149518999737,296.1149518999737,296.0988718000008,sal,SB04,01,False,2024-08-07_14h07.05.800,Gratings_vis_devJG_v0.6,2024.1.5,None,2024-08-07 14h07.16.190205 -0400,
57,0,57,0,296.1149518999737,,,,,,,,,296.09911459998693,296.131616699975,299.13174019998405,301.11492790002376,301.11492790002376,301.09841990005225,sal,SB04,01,False,2024-08-07_14h07.05.800,Gratings_vis_devJG_v0.6,2024.1.5,None,2024-08-07 14h07.16.190205 -0400,
58,0,58,0,301.11492790002376,,,,,,,,,301.0986708999844,301.13159790006466,304.1317676000763,306.11488290003035,306.11488290003035,306.0984348000493,sal,SB04,01,False,2024-08-07_14h07.05.800,Gratings_vis_devJG_v0.6,2024.1.5,None,2024-08-07 14h07.16.190205 -0400,
59,0,59,0,306.11488290003035,,,,,,,,,306.0986798000522,306.1315611000173,309.13172860001214,311.1148957000114,311.1148957000114,311.0984205000568,sal,SB04,01,False,2024-08-07_14h07.05.800,Gratings_vis_devJG_v0.6,2024.1.5,None,2024-08-07 14h07.16.190205 -0400,
60,0,60,0,311.1148957000114,,,,,,,,,311.0986790000461,311.131521500065,314.1316692000255,316.11489059997257,316.11489059997257,316.0995939000277,sal,SB04,01,False,2024-08-07_14h07.05.800,Gratings_vis_devJG_v0.6,2024.1.5,None,2024-08-07 14h07.16.190205 -0400,
61,0,61,0,316.11489059997257,,,,,,,,,316.0998412000481,316.1315134000033,319.13165150000714,321.11479260004126,321.11479260004126,321.09895600005984,sal,SB04,01,False,2024-08-07_14h07.05.800,Gratings_vis_devJG_v0.6,2024.1.5,None,2024-08-07 14h07.16.190205 -0400,
62,0,62,0,321.11479260004126,,,,,,,,,321.0991954000201,321.13143439998385,324.13161629997194,326.1159595999634,326.1159595999634,326.0990188000724,sal,SB04,01,False,2024-08-07_14h07.05.800,Gratings_vis_devJG_v0.6,2024.1.5,None,2024-08-07 14h07.16.190205 -0400,
63,0,63,0,326.1159595999634,,,,,,,,,326.0992657999741,326.13142150000203,329.1317102999892,331.11559850000776,331.11559850000776,331.0986553999828,sal,SB04,01,False,2024-08-07_14h07.05.800,Gratings_vis_devJG_v0.6,2024.1.5,None,2024-08-07 14h07.16.190205 -0400,
64,0,64,0,331.11559850000776,,,,,,,,,331.09890400001314,331.13139280001633,334.1315916000167,336.1160384999821,336.1160384999821,336.1000073000323,sal,SB04,01,False,2024-08-07_14h07.05.800,Gratings_vis_devJG_v0.6,2024.1.5,None,2024-08-07 14h07.16.190205 -0400,
65,0,65,0,336.1160384999821,,,,,,,,,336.1002536000451,336.13321310002357,339.1315112999873,341.1147126000142,341.1147126000142,341.1000114000635,sal,SB04,01,False,2024-08-07_14h07.05.800,Gratings_vis_devJG_v0.6,2024.1.5,None,2024-08-07 14h07.16.190205 -0400,
66,0,66,0,341.1147126000142,,,,,,,,,341.1002575000748,341.1329554000404,344.1324637000216,346.11655869998503,346.11655869998503,346.09827189997304,sal,SB04,01,False,2024-08-07_14h07.05.800,Gratings_vis_devJG_v0.6,2024.1.5,None,2024-08-07 14h07.16.190205 -0400,
67,0,67,0,346.11655869998503,,,,,,,,,346.09857440006454,346.13236839999445,349.1316452000756,351.11467230005655,351.11467230005655,351.0982071000617,sal,SB04,01,False,2024-08-07_14h07.05.800,Gratings_vis_devJG_v0.6,2024.1.5,None,2024-08-07 14h07.16.190205 -0400,
68,0,68,0,351.11467230005655,,,,,,,,,351.09847780002747,351.1314143000636,354.13151800003834,356.1147485000547,356.1147485000547,356.0981206999859,sal,SB04,01,False,2024-08-07_14h07.05.800,Gratings_vis_devJG_v0.6,2024.1.5,None,2024-08-07 14h07.16.190205 -0400,
69,0,69,0,356.1147485000547,,,,,,,,,356.09838520002086,356.13132569997106,359.1315713999793,361.1145907000173,361.1145907000173,361.09813369996846,sal,SB04,01,False,2024-08-07_14h07.05.800,Gratings_vis_devJG_v0.6,2024.1.5,None,2024-08-07 14h07.16.190205 -0400,
70,0,70,0,361.1145907000173,,,,,,,,,361.0983737000497,361.13124969997443,364.1318016999867,366.1145222999621,366.1145222999621,366.0980679000495,sal,SB04,01,False,2024-08-07_14h07.05.800,Gratings_vis_devJG_v0.6,2024.1.5,None,2024-08-07 14h07.16.190205 -0400,
71,0,71,0,366.1145222999621,,,,,,,,,366.098316000076,366.13121959997807,369.13209670002107,371.11448520002887,371.11448520002887,371.098238900071,sal,SB04,01,False,2024-08-07_14h07.05.800,Gratings_vis_devJG_v0.6,2024.1.5,None,2024-08-07 14h07.16.190205 -0400,
72,0,72,0,371.11448520002887,,,,,,,,,371.0984932000283,371.13133820006624,374.1323645999655,376.1146072000265,376.1146072000265,376.0985124000581,sal,SB04,01,False,2024-08-07_14h07.05.800,Gratings_vis_devJG_v0.6,2024.1.5,None,2024-08-07 14h07.16.190205 -0400,
73,0,73,0,376.1146072000265,,,,,,,,,376.09875290002674,376.1311706000706,379.132679500035,381.11463089997414,381.11463089997414,381.098063500016,sal,SB04,01,False,2024-08-07_14h07.05.800,Gratings_vis_devJG_v0.6,2024.1.5,None,2024-08-07 14h07.16.190205 -0400,
74,0,74,0,381.11463089997414,,,,,,,,,381.0983070000075,381.1311864000745,384.13302429998294,386.1148028000025,386.1148028000025,386.09834590007085,sal,SB04,01,False,2024-08-07_14h07.05.800,Gratings_vis_devJG_v0.6,2024.1.5,None,2024-08-07 14h07.16.190205 -0400,
75,0,75,0,386.1148028000025,,,,,,,,,386.09859369997866,386.13145230000373,389.1332522999728,391.1150336000137,391.1150336000137,391.09862499998417,sal,SB04,01,False,2024-08-07_14h07.05.800,Gratings_vis_devJG_v0.6,2024.1.5,None,2024-08-07 14h07.16.190205 -0400,
76,0,76,0,391.1150336000137,,,,,,,,,391.0988935000496,391.1318056000164,394.1335970000364,396.11529450002126,396.11529450002126,396.0989250000566,sal,SB04,01,False,2024-08-07_14h07.05.800,Gratings_vis_devJG_v0.6,2024.1.5,None,2024-08-07 14h07.16.190205 -0400,
77,0,77,0,396.11529450002126,,,,,,,,,396.09918180003297,396.1320842000423,399.13390190002974,401.1155470999656,401.1155470999656,401.0991140999831,sal,SB04,01,False,2024-08-07_14h07.05.800,Gratings_vis_devJG_v0.6,2024.1.5,None,2024-08-07 14h07.16.190205 -0400,
78,0,78,0,401.1155470999656,,,,,,,,,401.0993620000081,401.13219739997294,404.1314134000568,406.11438789998647,406.11438789998647,406.09801650000736,sal,SB04,01,False,2024-08-07_14h07.05.800,Gratings_vis_devJG_v0.6,2024.1.5,None,2024-08-07 14h07.16.190205 -0400,
79,0,79,0,406.11438789998647,,,,,,,,,406.09830499999225,406.13244910002686,409.1315628000302,411.1142190999817,411.1142190999817,411.0985589000629,sal,SB04,01,False,2024-08-07_14h07.05.800,Gratings_vis_devJG_v0.6,2024.1.5,None,2024-08-07 14h07.16.190205 -0400,
80,0,80,0,411.1142190999817,,,,,,,,,411.0988114000065,411.13090119999833,414.1312293000519,416.1142890000483,416.1142890000483,416.0977504000766,sal,SB04,01,False,2024-08-07_14h07.05.800,Gratings_vis_devJG_v0.6,2024.1.5,None,2024-08-07 14h07.16.190205 -0400,
81,0,81,0,416.1142890000483,,,,,,,,,416.09802819998004,416.1309637000086,419.13130010000896,421.11433540005237,421.11433540005237,421.0977585000219,sal,SB04,01,False,2024-08-07_14h07.05.800,Gratings_vis_devJG_v0.6,2024.1.5,None,2024-08-07 14h07.16.190205 -0400,
82,0,82,0,421.11433540005237,,,,,,,,,421.0980094000697,421.1307976000244,424.1310562000144,426.1141245000763,426.1141245000763,426.097896900028,sal,SB04,01,False,2024-08-07_14h07.05.800,Gratings_vis_devJG_v0.6,2024.1.5,None,2024-08-07 14h07.16.190205 -0400,
83,0,83,0,426.1141245000763,,,,,,,,,426.09814690006897,426.1308657999616,429.1309965000255,431.11406920000445,431.11406920000445,431.0977390999906,sal,SB04,01,False,2024-08-07_14h07.05.800,Gratings_vis_devJG_v0.6,2024.1.5,None,2024-08-07 14h07.16.190205 -0400,
84,0,84,0,431.11406920000445,,,,,,,,,431.0980164000066,431.13088489999063,434.1309726999607,436.1140795999672,436.1140795999672,436.09809310000855,sal,SB04,01,False,2024-08-07_14h07.05.800,Gratings_vis_devJG_v0.6,2024.1.5,None,2024-08-07 14h07.16.190205 -0400,
85,0,85,0,436.1140795999672,,,,,,,,,436.09834440005943,436.1308560000034,439.1312528999988,441.1141719999723,441.1141719999723,441.09766309999395,sal,SB04,01,False,2024-08-07_14h07.05.800,Gratings_vis_devJG_v0.6,2024.1.5,None,2024-08-07 14h07.16.190205 -0400,
86,0,86,0,441.1141719999723,,,,,,,,,441.09790040005464,441.1308391999919,444.1309539000504,446.1141290999949,446.1141290999949,446.09801650000736,sal,SB04,01,False,2024-08-07_14h07.05.800,Gratings_vis_devJG_v0.6,2024.1.5,None,2024-08-07 14h07.16.190205 -0400,
87,0,87,0,446.1141290999949,,,,,,,,,446.0982651000377,446.1307487000013,449.1309484000085,451.1143742999993,451.1143742999993,451.09775339998305,sal,SB04,01,False,2024-08-07_14h07.05.800,Gratings_vis_devJG_v0.6,2024.1.5,None,2024-08-07 14h07.16.190205 -0400,
88,0,88,0,451.1143742999993,,,,,,,,,451.09800750005525,451.1310014000628,454.1309278999688,456.1140811999794,456.1140811999794,456.0979466000572,sal,SB04,01,False,2024-08-07_14h07.05.800,Gratings_vis_devJG_v0.6,2024.1.5,None,2024-08-07 14h07.16.190205 -0400,
89,0,89,0,456.1140811999794,,,,,,,,,456.09819689998403,456.1307487000013,459.1309002999915,461.114045000053,461.114045000053,461.0975729000056,sal,SB04,01,False,2024-08-07_14h07.05.800,Gratings_vis_devJG_v0.6,2024.1.5,None,2024-08-07 14h07.16.190205 -0400,
90,0,90,0,461.114045000053,,,,,,,,,461.0978203000268,461.1309104000684,464.1310578000266,466.11399760004133,466.11399760004133,466.09758419997524,sal,SB04,01,False,2024-08-07_14h07.05.800,Gratings_vis_devJG_v0.6,2024.1.5,None,2024-08-07 14h07.16.190205 -0400,
91,0,91,0,466.11399760004133,,,,,,,,,466.09784449997824,466.13064059999306,469.13083599996753,471.11399390001316,471.11399390001316,471.09751670004334,sal,SB04,01,False,2024-08-07_14h07.05.800,Gratings_vis_devJG_v0.6,2024.1.5,None,2024-08-07 14h07.16.190205 -0400,
92,0,92,0,471.11399390001316,,,,,,,,,471.09776510007214,471.13061630004086,474.1308243999956,476.11400419997517,476.11400419997517,476.0975097999908,sal,SB04,01,False,2024-08-07_14h07.05.800,Gratings_vis_devJG_v0.6,2024.1.5,None,2024-08-07 14h07.16.190205 -0400,
93,0,93,0,476.11400419997517,,,,,,,,,476.0977491000667,476.1306110000005,479.1308485000627,481.1139137999853,481.1139137999853,481.0975858999882,sal,SB04,01,False,2024-08-07_14h07.05.800,Gratings_vis_devJG_v0.6,2024.1.5,None,2024-08-07 14h07.16.190205 -0400,
94,0,94,0,481.1139137999853,,,,,,,,,481.0978329000063,481.1305865000468,484.1309523000382,486.1139100000728,486.1139100000728,486.09789309999906,sal,SB04,01,False,2024-08-07_14h07.05.800,Gratings_vis_devJG_v0.6,2024.1.5,None,2024-08-07 14h07.16.190205 -0400,
95,0,95,0,486.1139100000728,,,,,,,,,486.09818600001745,486.13061630004086,489.13077639997937,491.1138522999827,491.1138522999827,491.09742690005805,sal,SB04,01,False,2024-08-07_14h07.05.800,Gratings_vis_devJG_v0.6,2024.1.5,None,2024-08-07 14h07.16.190205 -0400,
96,0,96,0,491.1138522999827,,,,,,,,,491.0976855000481,491.13056459999643,494.1306999999797,496.1140448000515,496.1140448000515,496.0974586000666,sal,SB04,01,False,2024-08-07_14h07.05.800,Gratings_vis_devJG_v0.6,2024.1.5,None,2024-08-07 14h07.16.190205 -0400,
97,0,97,0,496.1140448000515,,,,,,,,,496.09770120005123,496.13063390005846,499.1306819000747,501.1138275000267,501.1138275000267,501.09734700003173,sal,SB04,01,False,2024-08-07_14h07.05.800,Gratings_vis_devJG_v0.6,2024.1.5,None,2024-08-07 14h07.16.190205 -0400,
98,0,98,0,501.1138275000267,,,,,,,,,501.09759690007195,501.1304865999846,504.13066440005787,506.1138574000215,506.1138574000215,506.0973779000342,sal,SB04,01,False,2024-08-07_14h07.05.800,Gratings_vis_devJG_v0.6,2024.1.5,None,2024-08-07 14h07.16.190205 -0400,
99,0,99,0,506.1138574000215,,,,,,,,,506.09762819996104,506.13049550005235,509.1306188000599,511.1138232999947,511.1138232999947,511.0973308000248,sal,SB04,01,False,2024-08-07_14h07.05.800,Gratings_vis_devJG_v0.6,2024.1.5,None,2024-08-07 14h07.16.190205 -0400,
100,0,100,0,511.1138232999947,,,,,,,,,511.09760019998066,511.1304299000185,514.1305330999894,516.1138781000627,516.1138781000627,516.0977211999707,sal,SB04,01,False,2024-08-07_14h07.05.800,Gratings_vis_devJG_v0.6,2024.1.5,None,2024-08-07 14h07.16.190205 -0400,
101,0,101,0,516.1138781000627,,,,,,,,,516.0979802999645,516.1304133000085,519.1304840999655,521.1137173000025,521.1137173000025,521.0973161000293,sal,SB04,01,False,2024-08-07_14h07.05.800,Gratings_vis_devJG_v0.6,2024.1.5,None,2024-08-07 14h07.16.190205 -0400,
102,0,102,0,521.1137173000025,,,,,,,,,521.0975812000688,521.130419400055,524.1305862000445,526.1136873000069,526.1136873000069,526.0973121999996,sal,SB04,01,False,2024-08-07_14h07.05.800,Gratings_vis_devJG_v0.6,2024.1.5,None,2024-08-07 14h07.16.190205 -0400,
103,0,103,0,526.1136873000069,,,,,,,,,526.0975624000421,526.1303786999779,529.1305430000648,531.1137240000535,531.1137240000535,531.0972347999923,sal,SB04,01,False,2024-08-07_14h07.05.800,Gratings_vis_devJG_v0.6,2024.1.5,None,2024-08-07 14h07.16.190205 -0400,
104,0,104,0,531.1137240000535,,,,,,,,,531.0974875000538,531.1303812999977,534.130636200076,536.1136796000646,536.1136796000646,536.0977201999631,sal,SB04,01,False,2024-08-07_14h07.05.800,Gratings_vis_devJG_v0.6,2024.1.5,None,2024-08-07 14h07.16.190205 -0400,
105,0,105,0,536.1136796000646,,,,,,,,,536.0979830999859,536.1303279000567,539.1305100000463,541.1136657000752,541.1136657000752,541.0972396000288,sal,SB04,01,False,2024-08-07_14h07.05.800,Gratings_vis_devJG_v0.6,2024.1.5,None,2024-08-07 14h07.16.190205 -0400,
106,0,106,0,541.1136657000752,,,,,,,,,541.0974938999861,541.1305548000382,544.1306251999922,546.1136337000644,546.1136337000644,546.0975879000034,sal,SB04,01,False,2024-08-07_14h07.05.800,Gratings_vis_devJG_v0.6,2024.1.5,None,2024-08-07 14h07.16.190205 -0400,
107,0,107,0,546.1136337000644,,,,,,,,,546.0978412000695,546.1303379000165,549.1305030999938,551.1135642000008,551.1135642000008,551.097188499989,sal,SB04,01,False,2024-08-07_14h07.05.800,Gratings_vis_devJG_v0.6,2024.1.5,None,2024-08-07 14h07.16.190205 -0400,
108,0,108,0,551.1135642000008,,,,,,,,,551.097432199982,551.1302834000671,554.1304451000178,556.11359730002,556.11359730002,556.0974988000235,sal,SB04,01,False,2024-08-07_14h07.05.800,Gratings_vis_devJG_v0.6,2024.1.5,None,2024-08-07 14h07.16.190205 -0400,
109,0,109,0,556.11359730002,,,,,,,,,556.097740199999,556.1302547999658,559.1303914000746,561.1136913000373,561.1136913000373,561.0971285999985,sal,SB04,01,False,2024-08-07_14h07.05.800,Gratings_vis_devJG_v0.6,2024.1.5,None,2024-08-07 14h07.16.190205 -0400,
110,0,110,0,561.1136913000373,,,,,,,,,561.0973978000693,561.1301918000681,564.1303669000044,566.1135239000432,566.1135239000432,566.0971060000593,sal,SB04,01,False,2024-08-07_14h07.05.800,Gratings_vis_devJG_v0.6,2024.1.5,None,2024-08-07 14h07.16.190205 -0400,
111,0,111,0,566.1135239000432,,,,,,,,,566.0973584000021,566.13020340004,569.130386200035,571.1135082000401,571.1135082000401,571.0970760000637,sal,SB04,01,False,2024-08-07_14h07.05.800,Gratings_vis_devJG_v0.6,2024.1.5,None,2024-08-07 14h07.16.190205 -0400,
112,0,112,0,571.1135082000401,,,,,,,,,571.0973240999738,571.1301394000184,574.1303598000668,576.1134413999971,576.1134413999971,576.097067499999,sal,SB04,01,False,2024-08-07_14h07.05.800,Gratings_vis_devJG_v0.6,2024.1.5,None,2024-08-07 14h07.16.190205 -0400,
113,0,113,0,576.1134413999971,,,,,,,,,576.0973237999715,576.1301339999773,579.1303041999927,581.1134378999704,581.1134378999704,581.097060100059,sal,SB04,01,False,2024-08-07_14h07.05.800,Gratings_vis_devJG_v0.6,2024.1.5,None,2024-08-07 14h07.16.190205 -0400,
114,0,114,0,581.1134378999704,,,,,,,,,581.097320000059,581.1301318999613,584.1303429000545,586.1134128000122,586.1134128000122,586.0970184999751,sal,SB04,01,False,2024-08-07_14h07.05.800,Gratings_vis_devJG_v0.6,2024.1.5,None,2024-08-07 14h07.16.190205 -0400,
115,0,115,0,586.1134128000122,,,,,,,,,586.0972871000413,586.1300603999989,589.1309178000083,591.1134571000002,591.1134571000002,591.0970835000044,sal,SB04,01,False,2024-08-07_14h07.05.800,Gratings_vis_devJG_v0.6,2024.1.5,None,2024-08-07 14h07.16.190205 -0400,
116,0,116,0,591.1134571000002,,,,,,,,,591.0973332000431,591.1300599999959,594.1302358000539,596.1133975000121,596.1133975000121,596.0969161000103,sal,SB04,01,False,2024-08-07_14h07.05.800,Gratings_vis_devJG_v0.6,2024.1.5,None,2024-08-07 14h07.16.190205 -0400,
117,0,117,0,596.1133975000121,,,,,,,,,596.0971701999661,596.1300438999897,599.1303199999966,601.1133752000751,601.1133752000751,601.0969420999754,sal,SB04,01,False,2024-08-07_14h07.05.800,Gratings_vis_devJG_v0.6,2024.1.5,None,2024-08-07 14h07.16.190205 -0400,
118,0,118,0,601.1133752000751,,,,,,,,,601.0971831000643,601.1299770000624,604.1301432000473,606.1133386000292,606.1133386000292,606.0973104999866,sal,SB04,01,False,2024-08-07_14h07.05.800,Gratings_vis_devJG_v0.6,2024.1.5,None,2024-08-07 14h07.16.190205 -0400,
119,0,119,0,606.1133386000292,,,,,,,,,606.0975749000208,606.1299800999695,609.1301053999923,611.1322730999673,611.1322730999673,611.0968861000147,sal,SB04,01,False,2024-08-07_14h07.05.800,Gratings_vis_devJG_v0.6,2024.1.5,None,2024-08-07 14h07.16.190205 -0400,
