trials.thisRepN,trials.thisTrialN,trials.thisN,trials.thisIndex,thisRow.t,notes,nidaqTrigger.started,text_waiting_message.started,key_resp.started,nidaqTrigger.stopped,key_resp.keys,key_resp.rt,key_resp.duration,display_gratings.started,stim_grayScreen.started,stim_grating.started,display_gratings.stopped,stim_grayScreen.stopped,stim_grating.stopped,Protocol ID,Subject ID,Session ID,Wait for Trigger,date,expName,psychopyVersion,frameRate,expStart,
,,,,,,0.0056934000458568335,0.015137300011701882,0.015137300011701882,18.792236200068146,space,18.739581800065935,None,,,,,,,baseline,SB03,01,False,2024-08-05_12h28.28.344,Gratings_vis_devJG_v0.6,2024.1.5,None,2024-08-05 12h28.41.150159 -0400,
0,0,0,0,19.482449700008146,,,,,,,,,19.350549300084822,19.482449700008146,22.364952800096944,24.365167999989353,,,baseline,SB03,01,False,2024-08-05_12h28.28.344,Gratings_vis_devJG_v0.6,2024.1.5,None,2024-08-05 12h28.41.150159 -0400,
1,0,1,0,24.38182000000961,,,,,,,,,24.36545520008076,24.38182000000961,27.365230299998075,29.365508100017905,,,baseline,SB03,01,False,2024-08-05_12h28.28.344,Gratings_vis_devJG_v0.6,2024.1.5,None,2024-08-05 12h28.41.150159 -0400,
2,0,2,0,29.381896600010805,,,,,,,,,29.365770400036126,29.381896600010805,32.348703299998306,34.3654067000607,,,baseline,SB03,01,False,2024-08-05_12h28.28.344,Gratings_vis_devJG_v0.6,2024.1.5,None,2024-08-05 12h28.41.150159 -0400,
3,0,3,0,34.38186439999845,,,,,,,,,34.365739200031385,34.38186439999845,37.34867310000118,39.36520970007405,,,baseline,SB03,01,False,2024-08-05_12h28.28.344,Gratings_vis_devJG_v0.6,2024.1.5,None,2024-08-05 12h28.41.150159 -0400,
4,0,4,0,39.3818912000861,,,,,,,,,39.365495300036855,39.3818912000861,42.36538420000579,44.36521340010222,,,baseline,SB03,01,False,2024-08-05_12h28.28.344,Gratings_vis_devJG_v0.6,2024.1.5,None,2024-08-05 12h28.41.150159 -0400,
5,0,5,0,44.3818449000828,,,,,,,,,44.36549490003381,44.3818449000828,47.36530020006467,49.36519500007853,,,baseline,SB03,01,False,2024-08-05_12h28.28.344,Gratings_vis_devJG_v0.6,2024.1.5,None,2024-08-05 12h28.41.150159 -0400,
6,0,6,0,49.381823000032455,,,,,,,,,49.3654794000322,49.381823000032455,52.34863470005803,54.36515960004181,,,baseline,SB03,01,False,2024-08-05_12h28.28.344,Gratings_vis_devJG_v0.6,2024.1.5,None,2024-08-05 12h28.41.150159 -0400,
7,0,7,0,54.38180690002628,,,,,,,,,54.3654899999965,54.38180690002628,57.349602900096215,59.36512540001422,,,baseline,SB03,01,False,2024-08-05_12h28.28.344,Gratings_vis_devJG_v0.6,2024.1.5,None,2024-08-05 12h28.41.150159 -0400,
8,0,8,0,59.38174640003126,,,,,,,,,59.36537530005444,59.38174640003126,62.365349400090054,64.36506370001007,,,baseline,SB03,01,False,2024-08-05_12h28.28.344,Gratings_vis_devJG_v0.6,2024.1.5,None,2024-08-05 12h28.41.150159 -0400,
9,0,9,0,64.38169010006823,,,,,,,,,64.36531800008379,64.38169010006823,67.36630160000641,69.36510340007953,,,baseline,SB03,01,False,2024-08-05_12h28.28.344,Gratings_vis_devJG_v0.6,2024.1.5,None,2024-08-05 12h28.41.150159 -0400,
10,0,10,0,69.38186640001368,,,,,,,,,69.36535800003912,69.38186640001368,72.34858190000523,74.36510620010085,,,baseline,SB03,01,False,2024-08-05_12h28.28.344,Gratings_vis_devJG_v0.6,2024.1.5,None,2024-08-05 12h28.41.150159 -0400,
11,0,11,0,74.38165280001704,,,,,,,,,74.36537900008261,74.38165280001704,77.3485163000878,79.36507739999797,,,baseline,SB03,01,False,2024-08-05_12h28.28.344,Gratings_vis_devJG_v0.6,2024.1.5,None,2024-08-05 12h28.41.150159 -0400,
12,0,12,0,79.3823111000238,,,,,,,,,79.36534650006797,79.3823111000238,82.3669738000026,84.36520810006186,,,baseline,SB03,01,False,2024-08-05_12h28.28.344,Gratings_vis_devJG_v0.6,2024.1.5,None,2024-08-05 12h28.41.150159 -0400,
13,0,13,0,84.38182950008195,,,,,,,,,84.36553260008805,84.38182950008195,87.36521960003302,89.36541379999835,,,baseline,SB03,01,False,2024-08-05_12h28.28.344,Gratings_vis_devJG_v0.6,2024.1.5,None,2024-08-05 12h28.41.150159 -0400,
14,0,14,0,89.38191360002384,,,,,,,,,89.36570419999771,89.38191360002384,92.3651596000418,94.36584119999316,,,baseline,SB03,01,False,2024-08-05_12h28.28.344,Gratings_vis_devJG_v0.6,2024.1.5,None,2024-08-05 12h28.41.150159 -0400,
15,0,15,0,94.38165770005435,,,,,,,,,94.3661151000997,94.38165770005435,97.36511080001947,99.36499530007131,,,baseline,SB03,01,False,2024-08-05_12h28.28.344,Gratings_vis_devJG_v0.6,2024.1.5,None,2024-08-05 12h28.41.150159 -0400,
16,0,16,0,99.38263500004541,,,,,,,,,99.36525320005603,99.38263500004541,102.36509670002852,104.36491180001758,,,baseline,SB03,01,False,2024-08-05_12h28.28.344,Gratings_vis_devJG_v0.6,2024.1.5,None,2024-08-05 12h28.41.150159 -0400,
17,0,17,0,104.38280810008291,,,,,,,,,104.36524479999207,104.38280810008291,107.36499999999069,109.36489480000455,,,baseline,SB03,01,False,2024-08-05_12h28.28.344,Gratings_vis_devJG_v0.6,2024.1.5,None,2024-08-05 12h28.41.150159 -0400,
18,0,18,0,109.38299230008852,,,,,,,,,109.36516940000001,109.38299230008852,112.3649943000637,114.36482890008483,,,baseline,SB03,01,False,2024-08-05_12h28.28.344,Gratings_vis_devJG_v0.6,2024.1.5,None,2024-08-05 12h28.41.150159 -0400,
19,0,19,0,114.3816053000046,,,,,,,,,114.36509209999349,114.3816053000046,117.36518120008986,119.34977500000969,,,baseline,SB03,01,False,2024-08-05_12h28.28.344,Gratings_vis_devJG_v0.6,2024.1.5,None,2024-08-05 12h28.41.150159 -0400,
20,0,20,0,119.36476540006697,,,,,,,,,119.3500373000279,119.36476540006697,122.36492740001995,124.34848660009447,124.36478619999252,124.36478619999252,baseline,SB03,01,False,2024-08-05_12h28.28.344,Gratings_vis_devJG_v0.6,2024.1.5,None,2024-08-05 12h28.41.150159 -0400,
21,0,21,0,124.36478619999252,,,,,,,,,124.34874889999628,124.36478619999252,127.36528060003184,129.34828560007736,129.3647014000453,129.3647014000453,baseline,SB03,01,False,2024-08-05_12h28.28.344,Gratings_vis_devJG_v0.6,2024.1.5,None,2024-08-05 12h28.41.150159 -0400,
22,0,22,0,129.3647014000453,,,,,,,,,129.34853449999355,129.3647014000453,132.36440429999493,134.34821620001458,134.3646269000601,134.3646269000601,baseline,SB03,01,False,2024-08-05_12h28.28.344,Gratings_vis_devJG_v0.6,2024.1.5,None,2024-08-05 12h28.41.150159 -0400,
23,0,23,0,134.3646269000601,,,,,,,,,134.34851140005048,134.3646269000601,137.36488880007528,139.34924670006149,139.36562910000794,139.36562910000794,baseline,SB03,01,False,2024-08-05_12h28.28.344,Gratings_vis_devJG_v0.6,2024.1.5,None,2024-08-05 12h28.41.150159 -0400,
24,0,24,0,139.36562910000794,,,,,,,,,139.34949799999595,139.36562910000794,142.34966070007067,144.34925180010032,144.36643510009162,144.36643510009162,baseline,SB03,01,False,2024-08-05_12h28.28.344,Gratings_vis_devJG_v0.6,2024.1.5,None,2024-08-05 12h28.41.150159 -0400,
25,0,25,0,144.36643510009162,,,,,,,,,144.34950610005762,144.36643510009162,147.3497457000194,149.34855670004617,149.36486770003103,149.36486770003103,baseline,SB03,01,False,2024-08-05_12h28.28.344,Gratings_vis_devJG_v0.6,2024.1.5,None,2024-08-05 12h28.41.150159 -0400,
26,0,26,0,149.36486770003103,,,,,,,,,149.34881260001566,149.36486770003103,152.35774230002426,154.34845859999768,154.3648515000241,154.3648515000241,baseline,SB03,01,False,2024-08-05_12h28.28.344,Gratings_vis_devJG_v0.6,2024.1.5,None,2024-08-05 12h28.41.150159 -0400,
27,0,27,0,154.3648515000241,,,,,,,,,154.34871700010262,154.3648515000241,157.35003349999897,159.34880130004603,159.36527559999377,159.36527559999377,baseline,SB03,01,False,2024-08-05_12h28.28.344,Gratings_vis_devJG_v0.6,2024.1.5,None,2024-08-05 12h28.41.150159 -0400,
28,0,28,0,159.36527559999377,,,,,,,,,159.34904670005199,159.36527559999377,162.3643296000082,164.34829810005613,164.36473800009117,164.36473800009117,baseline,SB03,01,False,2024-08-05_12h28.28.344,Gratings_vis_devJG_v0.6,2024.1.5,None,2024-08-05 12h28.41.150159 -0400,
29,0,29,0,164.36473800009117,,,,,,,,,164.34853840002324,164.36473800009117,167.35088010004256,169.3480190000264,169.36575300002005,169.36575300002005,baseline,SB03,01,False,2024-08-05_12h28.28.344,Gratings_vis_devJG_v0.6,2024.1.5,None,2024-08-05 12h28.41.150159 -0400,
30,0,30,0,169.36575300002005,,,,,,,,,169.3482648000354,169.36575300002005,172.36491470003966,174.34803700004704,174.36454520002007,174.36454520002007,baseline,SB03,01,False,2024-08-05_12h28.28.344,Gratings_vis_devJG_v0.6,2024.1.5,None,2024-08-05 12h28.41.150159 -0400,
31,0,31,0,174.36454520002007,,,,,,,,,174.3482819000492,174.36454520002007,177.36502810008824,179.34809750004206,179.36448750004638,179.36448750004638,baseline,SB03,01,False,2024-08-05_12h28.28.344,Gratings_vis_devJG_v0.6,2024.1.5,None,2024-08-05 12h28.41.150159 -0400,
32,0,32,0,179.36448750004638,,,,,,,,,179.34834540006705,179.36448750004638,182.36452679999638,184.34792289999314,184.36437700001989,184.36437700001989,baseline,SB03,01,False,2024-08-05_12h28.28.344,Gratings_vis_devJG_v0.6,2024.1.5,None,2024-08-05 12h28.41.150159 -0400,
33,0,33,0,184.36437700001989,,,,,,,,,184.34820410003886,184.36437700001989,187.36449000006542,189.3479794000741,189.36427700007334,189.36427700007334,baseline,SB03,01,False,2024-08-05_12h28.28.344,Gratings_vis_devJG_v0.6,2024.1.5,None,2024-08-05 12h28.41.150159 -0400,
34,0,34,0,189.36427700007334,,,,,,,,,189.34823650005274,189.36427700007334,192.36454520002007,194.34782820008695,194.36428229999729,194.36428229999729,baseline,SB03,01,False,2024-08-05_12h28.28.344,Gratings_vis_devJG_v0.6,2024.1.5,None,2024-08-05 12h28.41.150159 -0400,
35,0,35,0,194.36428229999729,,,,,,,,,194.34807010006625,194.36428229999729,197.3644973000046,199.3479437000351,199.3642797000939,199.3642797000939,baseline,SB03,01,False,2024-08-05_12h28.28.344,Gratings_vis_devJG_v0.6,2024.1.5,None,2024-08-05 12h28.41.150159 -0400,
36,0,36,0,199.3642797000939,,,,,,,,,199.34818660002202,199.3642797000939,202.3646838000277,204.34788140002638,204.36423280008603,204.36423280008603,baseline,SB03,01,False,2024-08-05_12h28.28.344,Gratings_vis_devJG_v0.6,2024.1.5,None,2024-08-05 12h28.41.150159 -0400,
37,0,37,0,204.36423280008603,,,,,,,,,204.34813679999206,204.36423280008603,207.36486249999143,209.3479753000429,209.36428310000338,209.36428310000338,baseline,SB03,01,False,2024-08-05_12h28.28.344,Gratings_vis_devJG_v0.6,2024.1.5,None,2024-08-05 12h28.41.150159 -0400,
38,0,38,0,209.36428310000338,,,,,,,,,209.34825620008633,209.36428310000338,212.36421720008366,214.3489124000771,214.3641379000619,214.3641379000619,baseline,SB03,01,False,2024-08-05_12h28.28.344,Gratings_vis_devJG_v0.6,2024.1.5,None,2024-08-05 12h28.41.150159 -0400,
39,0,39,0,214.3641379000619,,,,,,,,,214.34924780006986,214.3641379000619,217.36441560008097,219.34785120002925,219.36426790000405,219.36426790000405,baseline,SB03,01,False,2024-08-05_12h28.28.344,Gratings_vis_devJG_v0.6,2024.1.5,None,2024-08-05 12h28.41.150159 -0400,
40,0,40,0,219.36426790000405,,,,,,,,,219.34811150003225,219.36426790000405,222.36475970002357,224.34810560010374,224.36424080003053,224.36424080003053,baseline,SB03,01,False,2024-08-05_12h28.28.344,Gratings_vis_devJG_v0.6,2024.1.5,None,2024-08-05 12h28.41.150159 -0400,
41,0,41,0,224.36424080003053,,,,,,,,,224.34835570002906,224.36424080003053,227.36462810006924,229.34815400000662,229.36443479999434,229.36443479999434,baseline,SB03,01,False,2024-08-05_12h28.28.344,Gratings_vis_devJG_v0.6,2024.1.5,None,2024-08-05 12h28.41.150159 -0400,
42,0,42,0,229.36443479999434,,,,,,,,,229.34841610002331,229.36443479999434,232.36435740010347,234.34768430003896,234.36416029999964,234.36416029999964,baseline,SB03,01,False,2024-08-05_12h28.28.344,Gratings_vis_devJG_v0.6,2024.1.5,None,2024-08-05 12h28.41.150159 -0400,
43,0,43,0,234.36416029999964,,,,,,,,,234.34793670009822,234.36416029999964,237.3647234000964,239.34785510005895,239.3643030000385,239.3643030000385,baseline,SB03,01,False,2024-08-05_12h28.28.344,Gratings_vis_devJG_v0.6,2024.1.5,None,2024-08-05 12h28.41.150159 -0400,
44,0,44,0,239.3643030000385,,,,,,,,,239.34812099998817,239.3643030000385,242.36445970006753,244.34773060004227,244.36432410008274,244.36432410008274,baseline,SB03,01,False,2024-08-05_12h28.28.344,Gratings_vis_devJG_v0.6,2024.1.5,None,2024-08-05 12h28.41.150159 -0400,
45,0,45,0,244.36432410008274,,,,,,,,,244.34800440003164,244.36432410008274,247.3642814999912,249.34765090001747,249.36416240001563,249.36416240001563,baseline,SB03,01,False,2024-08-05_12h28.28.344,Gratings_vis_devJG_v0.6,2024.1.5,None,2024-08-05 12h28.41.150159 -0400,
46,0,46,0,249.36416240001563,,,,,,,,,249.3478940000059,249.36416240001563,252.36423910001758,254.347662000102,254.3640453000553,254.3640453000553,baseline,SB03,01,False,2024-08-05_12h28.28.344,Gratings_vis_devJG_v0.6,2024.1.5,None,2024-08-05 12h28.41.150159 -0400,
47,0,47,0,254.3640453000553,,,,,,,,,254.3479234999977,254.3640453000553,257.36423820001073,259.3480040000286,259.36405700002797,259.36405700002797,baseline,SB03,01,False,2024-08-05_12h28.28.344,Gratings_vis_devJG_v0.6,2024.1.5,None,2024-08-05 12h28.41.150159 -0400,
48,0,48,0,259.36405700002797,,,,,,,,,259.34825280006044,259.36405700002797,262.36423840001225,264.34755450009834,264.36398490006104,264.36398490006104,baseline,SB03,01,False,2024-08-05_12h28.28.344,Gratings_vis_devJG_v0.6,2024.1.5,None,2024-08-05 12h28.41.150159 -0400,
49,0,49,0,264.36398490006104,,,,,,,,,264.3478206000291,264.36398490006104,267.3644518000074,269.347539300099,269.36401960009243,269.36401960009243,baseline,SB03,01,False,2024-08-05_12h28.28.344,Gratings_vis_devJG_v0.6,2024.1.5,None,2024-08-05 12h28.41.150159 -0400,
50,0,50,0,269.36401960009243,,,,,,,,,269.3478079000488,269.36401960009243,272.3642588000512,274.3479113000212,274.363957600086,274.363957600086,baseline,SB03,01,False,2024-08-05_12h28.28.344,Gratings_vis_devJG_v0.6,2024.1.5,None,2024-08-05 12h28.41.150159 -0400,
51,0,51,0,274.363957600086,,,,,,,,,274.34815910004545,274.363957600086,277.3641410000855,279.34790719999,279.363946700003,279.363946700003,baseline,SB03,01,False,2024-08-05_12h28.28.344,Gratings_vis_devJG_v0.6,2024.1.5,None,2024-08-05 12h28.41.150159 -0400,
52,0,52,0,279.363946700003,,,,,,,,,279.34815960004926,279.363946700003,282.36405450000893,284.34742120001465,284.36390700004995,284.36390700004995,baseline,SB03,01,False,2024-08-05_12h28.28.344,Gratings_vis_devJG_v0.6,2024.1.5,None,2024-08-05 12h28.41.150159 -0400,
53,0,53,0,284.36390700004995,,,,,,,,,284.34767010004725,284.36390700004995,287.3639441000996,289.34775290009566,289.3639061000431,289.3639061000431,baseline,SB03,01,False,2024-08-05_12h28.28.344,Gratings_vis_devJG_v0.6,2024.1.5,None,2024-08-05 12h28.41.150159 -0400,
54,0,54,0,289.3639061000431,,,,,,,,,289.34799530007876,289.3639061000431,292.3639511000365,294.3480687000556,294.3639040000271,294.3639040000271,baseline,SB03,01,False,2024-08-05_12h28.28.344,Gratings_vis_devJG_v0.6,2024.1.5,None,2024-08-05 12h28.41.150159 -0400,
55,0,55,0,294.3639040000271,,,,,,,,,294.34831999999005,294.3639040000271,297.3639632000122,299.3474193000002,299.36404490005225,299.36404490005225,baseline,SB03,01,False,2024-08-05_12h28.28.344,Gratings_vis_devJG_v0.6,2024.1.5,None,2024-08-05 12h28.41.150159 -0400,
56,0,56,0,299.36404490005225,,,,,,,,,299.3476821000222,299.36404490005225,302.3639752001036,304.34736950008664,304.36380759999156,304.36380759999156,baseline,SB03,01,False,2024-08-05_12h28.28.344,Gratings_vis_devJG_v0.6,2024.1.5,None,2024-08-05 12h28.41.150159 -0400,
57,0,57,0,304.36380759999156,,,,,,,,,304.34762720006984,304.36380759999156,307.3643830000656,309.3473551000934,309.3637653000187,309.3637653000187,baseline,SB03,01,False,2024-08-05_12h28.28.344,Gratings_vis_devJG_v0.6,2024.1.5,None,2024-08-05 12h28.41.150159 -0400,
58,0,58,0,309.3637653000187,,,,,,,,,309.3476016999921,309.3637653000187,312.36404640006367,314.34734900004696,314.36394660000224,314.36394660000224,baseline,SB03,01,False,2024-08-05_12h28.28.344,Gratings_vis_devJG_v0.6,2024.1.5,None,2024-08-05 12h28.41.150159 -0400,
59,0,59,0,314.36394660000224,,,,,,,,,314.34761060005985,314.36394660000224,317.3638665000908,319.34730480005965,319.36373440001626,319.36373440001626,baseline,SB03,01,False,2024-08-05_12h28.28.344,Gratings_vis_devJG_v0.6,2024.1.5,None,2024-08-05 12h28.41.150159 -0400,
60,0,60,0,319.36373440001626,,,,,,,,,319.3475702001015,319.36373440001626,322.36391170008574,324.34731149999425,324.3636800000677,324.3636800000677,baseline,SB03,01,False,2024-08-05_12h28.28.344,Gratings_vis_devJG_v0.6,2024.1.5,None,2024-08-05 12h28.41.150159 -0400,
61,0,61,0,324.3636800000677,,,,,,,,,324.3475817000726,324.3636800000677,327.3638813000871,329.34760900004767,329.36380759999156,329.36380759999156,baseline,SB03,01,False,2024-08-05_12h28.28.344,Gratings_vis_devJG_v0.6,2024.1.5,None,2024-08-05 12h28.41.150159 -0400,
62,0,62,0,329.36380759999156,,,,,,,,,329.3478542000521,329.36380759999156,332.3638663000893,334.34757179999724,334.36368190008216,334.36368190008216,baseline,SB03,01,False,2024-08-05_12h28.28.344,Gratings_vis_devJG_v0.6,2024.1.5,None,2024-08-05 12h28.41.150159 -0400,
63,0,63,0,334.36368190008216,,,,,,,,,334.3478345000185,334.36368190008216,337.36383640009444,339.34722670004703,339.36366020003334,339.36366020003334,baseline,SB03,01,False,2024-08-05_12h28.28.344,Gratings_vis_devJG_v0.6,2024.1.5,None,2024-08-05 12h28.41.150159 -0400,
64,0,64,0,339.36366020003334,,,,,,,,,339.3474785001017,339.36366020003334,342.3638232999947,344.3472128000576,344.36367980006617,344.36367980006617,baseline,SB03,01,False,2024-08-05_12h28.28.344,Gratings_vis_devJG_v0.6,2024.1.5,None,2024-08-05 12h28.41.150159 -0400,
65,0,65,0,344.36367980006617,,,,,,,,,344.3474723000545,344.36367980006617,347.36385730002075,349.34714570001233,349.36359500000253,349.36359500000253,baseline,SB03,01,False,2024-08-05_12h28.28.344,Gratings_vis_devJG_v0.6,2024.1.5,None,2024-08-05 12h28.41.150159 -0400,
66,0,66,0,349.36359500000253,,,,,,,,,349.3474020001013,349.36359500000253,352.3638119000243,354.3477023000596,354.36356750002597,354.36356750002597,baseline,SB03,01,False,2024-08-05_12h28.28.344,Gratings_vis_devJG_v0.6,2024.1.5,None,2024-08-05 12h28.41.150159 -0400,
67,0,67,0,354.36356750002597,,,,,,,,,354.34797850006726,354.36356750002597,357.36371110007167,359.3471628000261,359.36353800003417,359.36353800003417,baseline,SB03,01,False,2024-08-05_12h28.28.344,Gratings_vis_devJG_v0.6,2024.1.5,None,2024-08-05 12h28.41.150159 -0400,
68,0,68,0,359.36353800003417,,,,,,,,,359.34741680009756,359.36353800003417,362.36370230000466,364.3470793000888,364.36347860004753,364.36347860004753,baseline,SB03,01,False,2024-08-05_12h28.28.344,Gratings_vis_devJG_v0.6,2024.1.5,None,2024-08-05 12h28.41.150159 -0400,
69,0,69,0,364.36347860004753,,,,,,,,,364.34733320004307,364.36347860004753,367.36368290008977,369.3473932000343,369.36346850008704,369.36346850008704,baseline,SB03,01,False,2024-08-05_12h28.28.344,Gratings_vis_devJG_v0.6,2024.1.5,None,2024-08-05 12h28.41.150159 -0400,
70,0,70,0,369.36346850008704,,,,,,,,,369.3476426000707,369.36346850008704,372.3636117000133,374.3470130000496,374.36344720004126,374.36344720004126,baseline,SB03,01,False,2024-08-05_12h28.28.344,Gratings_vis_devJG_v0.6,2024.1.5,None,2024-08-05 12h28.41.150159 -0400,
71,0,71,0,374.36344720004126,,,,,,,,,374.34725560003426,374.36344720004126,377.36544460000005,379.3470082000131,379.3643930000253,379.3643930000253,baseline,SB03,01,False,2024-08-05_12h28.28.344,Gratings_vis_devJG_v0.6,2024.1.5,None,2024-08-05 12h28.41.150159 -0400,
72,0,72,0,379.3643930000253,,,,,,,,,379.347278600093,379.3643930000253,382.36435620009433,384.34717570000794,384.36351759999525,384.36351759999525,baseline,SB03,01,False,2024-08-05_12h28.28.344,Gratings_vis_devJG_v0.6,2024.1.5,None,2024-08-05 12h28.41.150159 -0400,
73,0,73,0,384.36351759999525,,,,,,,,,384.347441000049,384.36351759999525,387.36355300003197,389.34798110008705,389.36339880002197,389.36339880002197,baseline,SB03,01,False,2024-08-05_12h28.28.344,Gratings_vis_devJG_v0.6,2024.1.5,None,2024-08-05 12h28.41.150159 -0400,
74,0,74,0,389.36339880002197,,,,,,,,,389.348236400052,389.36339880002197,392.36356540001,394.3478958000196,394.3642186000943,394.3642186000943,baseline,SB03,01,False,2024-08-05_12h28.28.344,Gratings_vis_devJG_v0.6,2024.1.5,None,2024-08-05 12h28.41.150159 -0400,
75,0,75,0,394.3642186000943,,,,,,,,,394.3481642000843,394.3642186000943,397.3635103000561,399.3468478000723,399.3646940999897,399.3646940999897,baseline,SB03,01,False,2024-08-05_12h28.28.344,Gratings_vis_devJG_v0.6,2024.1.5,None,2024-08-05 12h28.41.150159 -0400,
76,0,76,0,399.3646940999897,,,,,,,,,399.34708870004397,399.3646940999897,402.3633953999961,404.34686500008684,404.36479520006105,404.36479520006105,baseline,SB03,01,False,2024-08-05_12h28.28.344,Gratings_vis_devJG_v0.6,2024.1.5,None,2024-08-05 12h28.41.150159 -0400,
77,0,77,0,404.36479520006105,,,,,,,,,404.34711229999084,404.36479520006105,407.36343280004803,409.34683980001137,409.3651213000994,409.3651213000994,baseline,SB03,01,False,2024-08-05_12h28.28.344,Gratings_vis_devJG_v0.6,2024.1.5,None,2024-08-05 12h28.41.150159 -0400,
78,0,78,0,409.3651213000994,,,,,,,,,409.34708690003026,409.3651213000994,412.3634223000845,414.34684840007685,414.36324310000055,414.36324310000055,baseline,SB03,01,False,2024-08-05_12h28.28.344,Gratings_vis_devJG_v0.6,2024.1.5,None,2024-08-05 12h28.41.150159 -0400,
79,0,79,0,414.36324310000055,,,,,,,,,414.34710170002654,414.36324310000055,417.3635045000119,419.3467735000886,419.363230100018,419.363230100018,baseline,SB03,01,False,2024-08-05_12h28.28.344,Gratings_vis_devJG_v0.6,2024.1.5,None,2024-08-05 12h28.41.150159 -0400,
80,0,80,0,419.363230100018,,,,,,,,,419.3470224000048,419.363230100018,422.363470600103,424.3473315000301,424.36318390001543,424.36318390001543,baseline,SB03,01,False,2024-08-05_12h28.28.344,Gratings_vis_devJG_v0.6,2024.1.5,None,2024-08-05 12h28.41.150159 -0400,
81,0,81,0,424.36318390001543,,,,,,,,,424.34761580009945,424.36318390001543,427.3636187000666,429.3467978000408,429.3631561000366,429.3631561000366,baseline,SB03,01,False,2024-08-05_12h28.28.344,Gratings_vis_devJG_v0.6,2024.1.5,None,2024-08-05 12h28.41.150159 -0400,
82,0,82,0,429.3631561000366,,,,,,,,,429.34704350004904,429.3631561000366,432.3634952000575,434.3472112000454,434.3631194999907,434.3631194999907,baseline,SB03,01,False,2024-08-05_12h28.28.344,Gratings_vis_devJG_v0.6,2024.1.5,None,2024-08-05 12h28.41.150159 -0400,
83,0,83,0,434.3631194999907,,,,,,,,,434.34745460003614,434.3631194999907,437.3642206999939,439.34720459999517,439.3631315000821,439.3631315000821,baseline,SB03,01,False,2024-08-05_12h28.28.344,Gratings_vis_devJG_v0.6,2024.1.5,None,2024-08-05 12h28.41.150159 -0400,
84,0,84,0,439.3631315000821,,,,,,,,,439.34745980007574,439.3631315000821,442.3644587000599,444.34704270004295,444.3630546000786,444.3630546000786,baseline,SB03,01,False,2024-08-05_12h28.28.344,Gratings_vis_devJG_v0.6,2024.1.5,None,2024-08-05 12h28.41.150159 -0400,
85,0,85,0,444.3630546000786,,,,,,,,,444.3472976000048,444.3630546000786,447.3647327000508,449.347253200016,449.3632921000244,449.3632921000244,baseline,SB03,01,False,2024-08-05_12h28.28.344,Gratings_vis_devJG_v0.6,2024.1.5,None,2024-08-05 12h28.41.150159 -0400,
86,0,86,0,449.3632921000244,,,,,,,,,449.3474949999945,449.3632921000244,452.36507310008164,454.347047700081,454.3634647000581,454.3634647000581,baseline,SB03,01,False,2024-08-05_12h28.28.344,Gratings_vis_devJG_v0.6,2024.1.5,None,2024-08-05 12h28.41.150159 -0400,
87,0,87,0,454.3634647000581,,,,,,,,,454.34730220003985,454.3634647000581,457.34871330007445,459.3474950999953,459.3637771999929,459.3637771999929,baseline,SB03,01,False,2024-08-05_12h28.28.344,Gratings_vis_devJG_v0.6,2024.1.5,None,2024-08-05 12h28.41.150159 -0400,
88,0,88,0,459.3637771999929,,,,,,,,,459.3477450000355,459.3637771999929,462.3464791000588,464.34761500009336,464.36493780009914,464.36493780009914,baseline,SB03,01,False,2024-08-05_12h28.28.344,Gratings_vis_devJG_v0.6,2024.1.5,None,2024-08-05 12h28.41.150159 -0400,
89,0,89,0,464.36493780009914,,,,,,,,,464.34789670002647,464.36493780009914,467.34934180008713,469.3469474000158,469.3629775000736,469.3629775000736,baseline,SB03,01,False,2024-08-05_12h28.28.344,Gratings_vis_devJG_v0.6,2024.1.5,None,2024-08-05 12h28.41.150159 -0400,
90,0,90,0,469.3629775000736,,,,,,,,,469.3472071000142,469.3629775000736,472.3634905000217,474.34681790007744,474.3628670000471,474.3628670000471,baseline,SB03,01,False,2024-08-05_12h28.28.344,Gratings_vis_devJG_v0.6,2024.1.5,None,2024-08-05 12h28.41.150159 -0400,
91,0,91,0,474.3628670000471,,,,,,,,,474.34706260007806,474.3628670000471,477.3630570000969,479.3468751000473,479.36298360000364,479.36298360000364,baseline,SB03,01,False,2024-08-05_12h28.28.344,Gratings_vis_devJG_v0.6,2024.1.5,None,2024-08-05 12h28.41.150159 -0400,
92,0,92,0,479.36298360000364,,,,,,,,,479.3471689000726,479.36298360000364,482.3630564000923,484.34634600009304,484.36275359999854,484.36275359999854,baseline,SB03,01,False,2024-08-05_12h28.28.344,Gratings_vis_devJG_v0.6,2024.1.5,None,2024-08-05 12h28.41.150159 -0400,
93,0,93,0,484.36275359999854,,,,,,,,,484.34659660002217,484.36275359999854,487.3629829999991,489.3463282000739,489.3627170000691,489.3627170000691,baseline,SB03,01,False,2024-08-05_12h28.28.344,Gratings_vis_devJG_v0.6,2024.1.5,None,2024-08-05 12h28.41.150159 -0400,
94,0,94,0,489.3627170000691,,,,,,,,,489.3465999000473,489.3627170000691,492.36299220006913,494.3463443000801,494.3627531999955,494.3627531999955,baseline,SB03,01,False,2024-08-05_12h28.28.344,Gratings_vis_devJG_v0.6,2024.1.5,None,2024-08-05 12h28.41.150159 -0400,
95,0,95,0,494.3627531999955,,,,,,,,,494.3465882000746,494.3627531999955,497.36291790008545,499.3462547000963,499.3629017000785,499.3629017000785,baseline,SB03,01,False,2024-08-05_12h28.28.344,Gratings_vis_devJG_v0.6,2024.1.5,None,2024-08-05 12h28.41.150159 -0400,
96,0,96,0,499.3629017000785,,,,,,,,,499.3464966000756,499.3629017000785,502.36295850004535,504.3462752000196,504.362774200039,504.362774200039,baseline,SB03,01,False,2024-08-05_12h28.28.344,Gratings_vis_devJG_v0.6,2024.1.5,None,2024-08-05 12h28.41.150159 -0400,
97,0,97,0,504.362774200039,,,,,,,,,504.3465230000438,504.362774200039,507.3629048001021,509.34681810007896,509.3628676000517,509.3628676000517,baseline,SB03,01,False,2024-08-05_12h28.28.344,Gratings_vis_devJG_v0.6,2024.1.5,None,2024-08-05 12h28.41.150159 -0400,
98,0,98,0,509.3628676000517,,,,,,,,,509.3470949000912,509.3628676000517,512.3630902000004,514.3466051000869,514.3626935000066,514.3626935000066,baseline,SB03,01,False,2024-08-05_12h28.28.344,Gratings_vis_devJG_v0.6,2024.1.5,None,2024-08-05 12h28.41.150159 -0400,
99,0,99,0,514.3626935000066,,,,,,,,,514.3468591000419,514.3626935000066,517.362967699999,519.3462776000379,519.362728200038,519.362728200038,baseline,SB03,01,False,2024-08-05_12h28.28.344,Gratings_vis_devJG_v0.6,2024.1.5,None,2024-08-05 12h28.41.150159 -0400,
100,0,100,0,519.362728200038,,,,,,,,,519.3465398000553,519.362728200038,522.3631907000672,524.3462663000682,524.3626914999913,524.3626914999913,baseline,SB03,01,False,2024-08-05_12h28.28.344,Gratings_vis_devJG_v0.6,2024.1.5,None,2024-08-05 12h28.41.150159 -0400,
101,0,101,0,524.3626914999913,,,,,,,,,524.3465308001032,524.3626914999913,527.3628121000947,529.3462703000987,529.36264940002,529.36264940002,baseline,SB03,01,False,2024-08-05_12h28.28.344,Gratings_vis_devJG_v0.6,2024.1.5,None,2024-08-05 12h28.41.150159 -0400,
102,0,102,0,529.36264940002,,,,,,,,,529.3465270000743,529.36264940002,532.3627923000604,534.346222500084,534.3626392000588,534.3626392000588,baseline,SB03,01,False,2024-08-05_12h28.28.344,Gratings_vis_devJG_v0.6,2024.1.5,None,2024-08-05 12h28.41.150159 -0400,
103,0,103,0,534.3626392000588,,,,,,,,,534.3465190000134,534.3626392000588,537.3628131001024,539.3465882000746,539.3628613000037,539.3628613000037,baseline,SB03,01,False,2024-08-05_12h28.28.344,Gratings_vis_devJG_v0.6,2024.1.5,None,2024-08-05 12h28.41.150159 -0400,
104,0,104,0,539.3628613000037,,,,,,,,,539.3468395000091,539.3628613000037,542.3629187000915,544.3461245000362,544.3625403000042,544.3625403000042,baseline,SB03,01,False,2024-08-05_12h28.28.344,Gratings_vis_devJG_v0.6,2024.1.5,None,2024-08-05 12h28.41.150159 -0400,
105,0,105,0,544.3625403000042,,,,,,,,,544.3463827000232,544.3625403000042,547.3627262000227,549.3461378000211,549.3635957000079,549.3635957000079,baseline,SB03,01,False,2024-08-05_12h28.28.344,Gratings_vis_devJG_v0.6,2024.1.5,None,2024-08-05 12h28.41.150159 -0400,
106,0,106,0,549.3635957000079,,,,,,,,,549.3463772000978,549.3635957000079,552.3627138000447,554.3464152000379,554.362614300102,554.362614300102,baseline,SB03,01,False,2024-08-05_12h28.28.344,Gratings_vis_devJG_v0.6,2024.1.5,None,2024-08-05 12h28.41.150159 -0400,
107,0,107,0,554.362614300102,,,,,,,,,554.3466599000385,554.362614300102,557.3628643000266,559.3464306000387,559.362484500045,559.362484500045,baseline,SB03,01,False,2024-08-05_12h28.28.344,Gratings_vis_devJG_v0.6,2024.1.5,None,2024-08-05 12h28.41.150159 -0400,
108,0,108,0,559.362484500045,,,,,,,,,559.3466829000972,559.362484500045,562.3626661000308,564.3460272999946,564.3624516000273,564.3624516000273,baseline,SB03,01,False,2024-08-05_12h28.28.344,Gratings_vis_devJG_v0.6,2024.1.5,None,2024-08-05 12h28.41.150159 -0400,
109,0,109,0,564.3624516000273,,,,,,,,,564.3462700000964,564.3624516000273,567.3626756001031,569.345972900046,569.3624355000211,569.3624355000211,baseline,SB03,01,False,2024-08-05_12h28.28.344,Gratings_vis_devJG_v0.6,2024.1.5,None,2024-08-05 12h28.41.150159 -0400,
110,0,110,0,569.3624355000211,,,,,,,,,569.3462581000058,569.3624355000211,572.3626070000464,574.3459716000361,574.3624434000812,574.3624434000812,baseline,SB03,01,False,2024-08-05_12h28.28.344,Gratings_vis_devJG_v0.6,2024.1.5,None,2024-08-05 12h28.41.150159 -0400,
111,0,111,0,574.3624434000812,,,,,,,,,574.3462266999995,574.3624434000812,577.3625810000813,579.3463524000254,579.3624007999897,579.3624007999897,baseline,SB03,01,False,2024-08-05_12h28.28.344,Gratings_vis_devJG_v0.6,2024.1.5,None,2024-08-05 12h28.41.150159 -0400,
112,0,112,0,579.3624007999897,,,,,,,,,579.346620400087,579.3624007999897,582.3625137000345,584.3460466000251,584.3624310001032,584.3624310001032,baseline,SB03,01,False,2024-08-05_12h28.28.344,Gratings_vis_devJG_v0.6,2024.1.5,None,2024-08-05 12h28.41.150159 -0400,
113,0,113,0,584.3624310001032,,,,,,,,,584.3462952000555,584.3624310001032,587.3625269000186,589.3459020000882,589.3623833000893,589.3623833000893,baseline,SB03,01,False,2024-08-05_12h28.28.344,Gratings_vis_devJG_v0.6,2024.1.5,None,2024-08-05 12h28.41.150159 -0400,
114,0,114,0,589.3623833000893,,,,,,,,,589.3461529000197,589.3623833000893,592.3628232000628,594.3459671000019,594.3624211000279,594.3624211000279,baseline,SB03,01,False,2024-08-05_12h28.28.344,Gratings_vis_devJG_v0.6,2024.1.5,None,2024-08-05 12h28.41.150159 -0400,
115,0,115,0,594.3624211000279,,,,,,,,,594.3462223000824,594.3624211000279,597.3624643000076,599.3459249000298,599.3623154000379,599.3623154000379,baseline,SB03,01,False,2024-08-05_12h28.28.344,Gratings_vis_devJG_v0.6,2024.1.5,None,2024-08-05 12h28.41.150159 -0400,
116,0,116,0,599.3623154000379,,,,,,,,,599.3461667000083,599.3623154000379,602.3624295000918,604.3457799000898,604.3622151000891,604.3622151000891,baseline,SB03,01,False,2024-08-05_12h28.28.344,Gratings_vis_devJG_v0.6,2024.1.5,None,2024-08-05 12h28.41.150159 -0400,
117,0,117,0,604.3622151000891,,,,,,,,,604.3460308000213,604.3622151000891,607.3623397999909,609.3457860000199,609.3621860001003,609.3621860001003,baseline,SB03,01,False,2024-08-05_12h28.28.344,Gratings_vis_devJG_v0.6,2024.1.5,None,2024-08-05 12h28.41.150159 -0400,
118,0,118,0,609.3621860001003,,,,,,,,,609.3460391000845,609.3621860001003,612.3623273000121,614.3461618000874,614.3621664000675,614.3621664000675,baseline,SB03,01,False,2024-08-05_12h28.28.344,Gratings_vis_devJG_v0.6,2024.1.5,None,2024-08-05 12h28.41.150159 -0400,
119,0,119,0,614.3621664000675,,,,,,,,,614.3464171000523,614.3621664000675,617.3623437000206,619.3461635001004,619.3884029000765,619.3884029000765,baseline,SB03,01,False,2024-08-05_12h28.28.344,Gratings_vis_devJG_v0.6,2024.1.5,None,2024-08-05 12h28.41.150159 -0400,
