trials.thisRepN,trials.thisTrialN,trials.thisN,trials.thisIndex,thisRow.t,notes,nidaqTrigger.started,text_waiting_message.started,key_resp.started,nidaqTrigger.stopped,key_resp.keys,key_resp.rt,key_resp.duration,display_gratings.started,stim_grayScreen.started,stim_grating.started,stim_grayScreen.stopped,stim_grating.stopped,display_gratings.stopped,Protocol ID,Subject ID,Session ID,Wait for Trigger,date,expName,psychopyVersion,frameRate,expStart,
,,,,,,0.07300970004871488,0.07526640000287443,0.07526640000287443,4.349222699995153,space,4.269619900034741,None,,,,,,,sal,GS09,01,False,2024-08-07_15h51.23.287,Gratings_vis_devJG_v0.6,2024.1.5,None,2024-08-07 15h51.35.866093 -0400,
0,0,0,0,4.3908934000646695,,,,,,,,,4.389406500034966,4.3908934000646695,7.397424299968407,9.380485799978487,9.380485799978487,9.36448480002582,sal,GS09,01,False,2024-08-07_15h51.23.287,Gratings_vis_devJG_v0.6,2024.1.5,None,2024-08-07 15h51.35.866093 -0400,
1,0,1,0,9.380485799978487,,,,,,,,,9.364748500054702,9.397146500064991,12.399362400057726,14.380836799973622,14.380836799973622,14.365818400052376,sal,GS09,01,False,2024-08-07_15h51.23.287,Gratings_vis_devJG_v0.6,2024.1.5,None,2024-08-07 15h51.35.866093 -0400,
2,0,2,0,14.380836799973622,,,,,,,,,14.366082899970934,14.397693500039168,17.397812800016254,19.38080180005636,19.38080180005636,19.364257900044322,sal,GS09,01,False,2024-08-07_15h51.23.287,Gratings_vis_devJG_v0.6,2024.1.5,None,2024-08-07 15h51.35.866093 -0400,
3,0,3,0,19.38080180005636,,,,,,,,,19.3644996000221,19.397511500050314,22.399362500058487,24.380838599987328,24.380838599987328,24.36472870002035,sal,GS09,01,False,2024-08-07_15h51.23.287,Gratings_vis_devJG_v0.6,2024.1.5,None,2024-08-07 15h51.35.866093 -0400,
4,0,4,0,24.380838599987328,,,,,,,,,24.364982999977656,24.39763609995134,27.399835400050506,29.380856900010258,29.380856900010258,29.36430650006514,sal,GS09,01,False,2024-08-07_15h51.23.287,Gratings_vis_devJG_v0.6,2024.1.5,None,2024-08-07 15h51.35.866093 -0400,
5,0,5,0,29.380856900010258,,,,,,,,,29.364549900055863,29.397762099979445,32.39999359997455,34.38073219999205,34.38073219999205,34.3642388000153,sal,GS09,01,False,2024-08-07_15h51.23.287,Gratings_vis_devJG_v0.6,2024.1.5,None,2024-08-07 15h51.35.866093 -0400,
6,0,6,0,34.38073219999205,,,,,,,,,34.36447649996262,34.398270300007425,37.40112419996876,39.38069759996142,39.38069759996142,39.36419049999677,sal,GS09,01,False,2024-08-07_15h51.23.287,Gratings_vis_devJG_v0.6,2024.1.5,None,2024-08-07 15h51.35.866093 -0400,
7,0,7,0,39.38069759996142,,,,,,,,,39.36445350002032,39.397355500026606,42.3986159999622,44.38061460002791,44.38061460002791,44.36419140000362,sal,GS09,01,False,2024-08-07_15h51.23.287,Gratings_vis_devJG_v0.6,2024.1.5,None,2024-08-07 15h51.35.866093 -0400,
8,0,8,0,44.38061460002791,,,,,,,,,44.36445160000585,44.397510300041176,47.400936800055206,49.38104020000901,49.38104020000901,49.36468410002999,sal,GS09,01,False,2024-08-07_15h51.23.287,Gratings_vis_devJG_v0.6,2024.1.5,None,2024-08-07 15h51.35.866093 -0400,
9,0,9,0,49.38104020000901,,,,,,,,,49.364935699966736,49.39875960000791,52.40087690006476,54.3813163000159,54.3813163000159,54.36457109998446,sal,GS09,01,False,2024-08-07_15h51.23.287,Gratings_vis_devJG_v0.6,2024.1.5,None,2024-08-07 15h51.35.866093 -0400,
10,0,10,0,54.3813163000159,,,,,,,,,54.36481920001097,54.398147900006734,57.39767610002309,59.38135539996438,59.38135539996438,59.36528080003336,sal,GS09,01,False,2024-08-07_15h51.23.287,Gratings_vis_devJG_v0.6,2024.1.5,None,2024-08-07 15h51.35.866093 -0400,
11,0,11,0,59.38135539996438,,,,,,,,,59.36552610003855,59.398103400017135,62.4015875000041,64.3815221999539,64.3815221999539,64.3650899999775,sal,GS09,01,False,2024-08-07_15h51.23.287,Gratings_vis_devJG_v0.6,2024.1.5,None,2024-08-07 15h51.35.866093 -0400,
12,0,12,0,64.3815221999539,,,,,,,,,64.36532840004656,64.39797629998066,67.3976621000329,69.38050950004254,69.38050950004254,69.36396650003735,sal,GS09,01,False,2024-08-07_15h51.23.287,Gratings_vis_devJG_v0.6,2024.1.5,None,2024-08-07 15h51.35.866093 -0400,
13,0,13,0,69.38050950004254,,,,,,,,,69.36421619995963,69.39719669998158,72.3976277000038,74.38048839999828,74.38048839999828,74.36390290001873,sal,GS09,01,False,2024-08-07_15h51.23.287,Gratings_vis_devJG_v0.6,2024.1.5,None,2024-08-07 15h51.35.866093 -0400,
14,0,14,0,74.38048839999828,,,,,,,,,74.36415939999279,74.39714380004443,77.39782179996837,79.38035079999827,79.38035079999827,79.36436150001828,sal,GS09,01,False,2024-08-07_15h51.23.287,Gratings_vis_devJG_v0.6,2024.1.5,None,2024-08-07 15h51.35.866093 -0400,
15,0,15,0,79.38035079999827,,,,,,,,,79.36464200005867,79.39705380005762,82.39768679998815,84.38028779998422,84.38028779998422,84.36427050002385,sal,GS09,01,False,2024-08-07_15h51.23.287,Gratings_vis_devJG_v0.6,2024.1.5,None,2024-08-07 15h51.35.866093 -0400,
16,0,16,0,84.38028779998422,,,,,,,,,84.36451790004503,84.3971629999578,87.39746620005462,89.38029400003143,89.38029400003143,89.36413630004972,sal,GS09,01,False,2024-08-07_15h51.23.287,Gratings_vis_devJG_v0.6,2024.1.5,None,2024-08-07 15h51.35.866093 -0400,
17,0,17,0,89.38029400003143,,,,,,,,,89.3643917000154,89.39702959998976,92.39733389997855,94.38023720006458,94.38023720006458,94.36384810006712,sal,GS09,01,False,2024-08-07_15h51.23.287,Gratings_vis_devJG_v0.6,2024.1.5,None,2024-08-07 15h51.35.866093 -0400,
18,0,18,0,94.38023720006458,,,,,,,,,94.36408550001215,94.39697150001302,97.39720500004478,99.38028719997965,99.38028719997965,99.36376570002176,sal,GS09,01,False,2024-08-07_15h51.23.287,Gratings_vis_devJG_v0.6,2024.1.5,None,2024-08-07 15h51.35.866093 -0400,
19,0,19,0,99.38028719997965,,,,,,,,,99.36400389997289,99.3970823000418,102.39731699996628,104.3803872000426,104.3803872000426,104.36383050004952,sal,GS09,01,False,2024-08-07_15h51.23.287,Gratings_vis_devJG_v0.6,2024.1.5,None,2024-08-07 15h51.35.866093 -0400,
20,0,20,0,104.3803872000426,,,,,,,,,104.36409130005632,104.39710199995898,107.39724329998717,109.38034250005148,109.38034250005148,109.36372659995686,sal,GS09,01,False,2024-08-07_15h51.23.287,Gratings_vis_devJG_v0.6,2024.1.5,None,2024-08-07 15h51.35.866093 -0400,
21,0,21,0,109.38034250005148,,,,,,,,,109.36397629999556,109.397233900032,112.3973907000618,114.38033670000732,114.38033670000732,114.3638793999562,sal,GS09,01,False,2024-08-07_15h51.23.287,Gratings_vis_devJG_v0.6,2024.1.5,None,2024-08-07 15h51.35.866093 -0400,
22,0,22,0,114.38033670000732,,,,,,,,,114.36412260006182,114.39699320006184,117.397352400003,119.3803559000371,119.3803559000371,119.36367120000068,sal,GS09,01,False,2024-08-07_15h51.23.287,Gratings_vis_devJG_v0.6,2024.1.5,None,2024-08-07 15h51.35.866093 -0400,
23,0,23,0,119.3803559000371,,,,,,,,,119.3639216000447,119.3970771000022,122.39734739996493,124.3801946999738,124.3801946999738,124.36368910002057,sal,GS09,01,False,2024-08-07_15h51.23.287,Gratings_vis_devJG_v0.6,2024.1.5,None,2024-08-07 15h51.35.866093 -0400,
24,0,24,0,124.3801946999738,,,,,,,,,124.36394429998472,124.39705280005,127.3972784000216,129.38028459995985,129.38028459995985,129.3636811999604,sal,GS09,01,False,2024-08-07_15h51.23.287,Gratings_vis_devJG_v0.6,2024.1.5,None,2024-08-07 15h51.35.866093 -0400,
25,0,25,0,129.38028459995985,,,,,,,,,129.36392749997322,129.39689089998137,132.39715820003767,134.38029870006721,134.38029870006721,134.36359680001624,sal,GS09,01,False,2024-08-07_15h51.23.287,Gratings_vis_devJG_v0.6,2024.1.5,None,2024-08-07 15h51.35.866093 -0400,
26,0,26,0,134.38029870006721,,,,,,,,,134.3638463000534,134.3969097000081,137.39696469996125,139.38004690001253,139.38004690001253,139.3635703000473,sal,GS09,01,False,2024-08-07_15h51.23.287,Gratings_vis_devJG_v0.6,2024.1.5,None,2024-08-07 15h51.35.866093 -0400,
27,0,27,0,139.38004690001253,,,,,,,,,139.36381390003953,139.39680109999608,142.39720839995425,144.38005020003766,144.38005020003766,144.36402340000495,sal,GS09,01,False,2024-08-07_15h51.23.287,Gratings_vis_devJG_v0.6,2024.1.5,None,2024-08-07 15h51.35.866093 -0400,
28,0,28,0,144.38005020003766,,,,,,,,,144.3642635999713,144.39681800000835,147.39719909999985,149.38029570004437,149.38029570004437,149.36376099998597,sal,GS09,01,False,2024-08-07_15h51.23.287,Gratings_vis_devJG_v0.6,2024.1.5,None,2024-08-07 15h51.35.866093 -0400,
29,0,29,0,149.38029570004437,,,,,,,,,149.36400609998964,149.39696980000008,152.39683149999473,154.37998660001904,154.37998660001904,154.36407789995428,sal,GS09,01,False,2024-08-07_15h51.23.287,Gratings_vis_devJG_v0.6,2024.1.5,None,2024-08-07 15h51.35.866093 -0400,
30,0,30,0,154.37998660001904,,,,,,,,,154.3643238999648,154.3968699000543,157.39709350001067,159.38017000001855,159.38017000001855,159.36356630001683,sal,GS09,01,False,2024-08-07_15h51.23.287,Gratings_vis_devJG_v0.6,2024.1.5,None,2024-08-07 15h51.35.866093 -0400,
31,0,31,0,159.38017000001855,,,,,,,,,159.36382530000992,159.39682989998255,162.3970139999874,164.37995239999145,164.37995239999145,164.36361340002622,sal,GS09,01,False,2024-08-07_15h51.23.287,Gratings_vis_devJG_v0.6,2024.1.5,None,2024-08-07 15h51.35.866093 -0400,
32,0,32,0,164.37995239999145,,,,,,,,,164.36388309998438,164.39667549997102,167.39707960002124,169.38011150003877,169.38011150003877,169.36342539999168,sal,GS09,01,False,2024-08-07_15h51.23.287,Gratings_vis_devJG_v0.6,2024.1.5,None,2024-08-07 15h51.35.866093 -0400,
33,0,33,0,169.38011150003877,,,,,,,,,169.36367690004408,169.39674640004523,172.39674220001325,174.3798995000543,174.3798995000543,174.3635648000054,sal,GS09,01,False,2024-08-07_15h51.23.287,Gratings_vis_devJG_v0.6,2024.1.5,None,2024-08-07 15h51.35.866093 -0400,
34,0,34,0,174.3798995000543,,,,,,,,,174.36381670006085,174.39672119996976,177.39695079997182,179.37990050006192,179.37990050006192,179.36377549997997,sal,GS09,01,False,2024-08-07_15h51.23.287,Gratings_vis_devJG_v0.6,2024.1.5,None,2024-08-07 15h51.35.866093 -0400,
35,0,35,0,179.37990050006192,,,,,,,,,179.36403269995935,179.39673050004058,182.3968699000543,184.37984039995354,184.37984039995354,184.36381340003572,sal,GS09,01,False,2024-08-07_15h51.23.287,Gratings_vis_devJG_v0.6,2024.1.5,None,2024-08-07 15h51.35.866093 -0400,
36,0,36,0,184.37984039995354,,,,,,,,,184.36410380003508,184.39664910000283,187.3969963999698,189.37982070003636,189.37982070003636,189.36378220003098,sal,GS09,01,False,2024-08-07_15h51.23.287,Gratings_vis_devJG_v0.6,2024.1.5,None,2024-08-07 15h51.35.866093 -0400,
37,0,37,0,189.37982070003636,,,,,,,,,189.36405600002035,189.3966112000635,192.39677530003246,194.37984920002054,194.37984920002054,194.36378769995645,sal,GS09,01,False,2024-08-07_15h51.23.287,Gratings_vis_devJG_v0.6,2024.1.5,None,2024-08-07 15h51.35.866093 -0400,
38,0,38,0,194.37984920002054,,,,,,,,,194.36402890004683,194.39666690002196,197.39694290002808,199.37983310001437,199.37983310001437,199.36395529995207,sal,GS09,01,False,2024-08-07_15h51.23.287,Gratings_vis_devJG_v0.6,2024.1.5,None,2024-08-07 15h51.35.866093 -0400,
39,0,39,0,199.37983310001437,,,,,,,,,199.364213700057,199.39667469996493,202.3967665999662,204.37990010005888,204.37990010005888,204.3633145999629,sal,GS09,01,False,2024-08-07_15h51.23.287,Gratings_vis_devJG_v0.6,2024.1.5,None,2024-08-07 15h51.35.866093 -0400,
40,0,40,0,204.37990010005888,,,,,,,,,204.36355440004263,204.39662350004073,207.3966399000492,209.37980049999896,209.37980049999896,209.36327800003346,sal,GS09,01,False,2024-08-07_15h51.23.287,Gratings_vis_devJG_v0.6,2024.1.5,None,2024-08-07 15h51.35.866093 -0400,
41,0,41,0,209.37980049999896,,,,,,,,,209.36351599998306,209.39639140001964,212.39664150006138,214.37975139997434,214.37975139997434,214.3632647000486,sal,GS09,01,False,2024-08-07_15h51.23.287,Gratings_vis_devJG_v0.6,2024.1.5,None,2024-08-07 15h51.35.866093 -0400,
42,0,42,0,214.37975139997434,,,,,,,,,214.36350259999745,214.3965193000622,217.39659240003675,219.3796483000042,219.3796483000042,219.363172100042,sal,GS09,01,False,2024-08-07_15h51.23.287,Gratings_vis_devJG_v0.6,2024.1.5,None,2024-08-07 15h51.35.866093 -0400,
43,0,43,0,219.3796483000042,,,,,,,,,219.36343659996055,219.39644100004807,222.3966233000392,224.3797519999789,224.3797519999789,224.36354499997105,sal,GS09,01,False,2024-08-07_15h51.23.287,Gratings_vis_devJG_v0.6,2024.1.5,None,2024-08-07 15h51.35.866093 -0400,
44,0,44,0,224.3797519999789,,,,,,,,,224.36407919996418,224.39631810004357,227.39664849999826,229.37967870000284,229.37967870000284,229.36311519995797,sal,GS09,01,False,2024-08-07_15h51.23.287,Gratings_vis_devJG_v0.6,2024.1.5,None,2024-08-07 15h51.35.866093 -0400,
45,0,45,0,229.37967870000284,,,,,,,,,229.36335899995174,229.3963920000242,232.39647799998056,234.37962600006722,234.37962600006722,234.36315960006323,sal,GS09,01,False,2024-08-07_15h51.23.287,Gratings_vis_devJG_v0.6,2024.1.5,None,2024-08-07 15h51.35.866093 -0400,
46,0,46,0,234.37962600006722,,,,,,,,,234.36340400006156,234.39665210002568,237.3965070999693,239.3795809999574,239.3795809999574,239.3630828000605,sal,GS09,01,False,2024-08-07_15h51.23.287,Gratings_vis_devJG_v0.6,2024.1.5,None,2024-08-07 15h51.35.866093 -0400,
47,0,47,0,239.3795809999574,,,,,,,,,239.36333199997898,239.39632719999645,242.39690419996623,244.37950190005358,244.37950190005358,244.3630439999979,sal,GS09,01,False,2024-08-07_15h51.23.287,Gratings_vis_devJG_v0.6,2024.1.5,None,2024-08-07 15h51.35.866093 -0400,
48,0,48,0,244.37950190005358,,,,,,,,,244.3632845999673,244.39650220004842,247.396552399965,249.37948380003218,249.37948380003218,249.36347280000336,sal,GS09,01,False,2024-08-07_15h51.23.287,Gratings_vis_devJG_v0.6,2024.1.5,None,2024-08-07 15h51.35.866093 -0400,
49,0,49,0,249.37948380003218,,,,,,,,,249.3637269999599,249.3961936000269,252.39642660005484,254.3795932000503,254.3795932000503,254.36367360001896,sal,GS09,01,False,2024-08-07_15h51.23.287,Gratings_vis_devJG_v0.6,2024.1.5,None,2024-08-07 15h51.35.866093 -0400,
50,0,50,0,254.3795932000503,,,,,,,,,254.36395070003346,254.39617850002833,257.3964578000596,259.3794716000557,259.3794716000557,259.36304049997125,sal,GS09,01,False,2024-08-07_15h51.23.287,Gratings_vis_devJG_v0.6,2024.1.5,None,2024-08-07 15h51.35.866093 -0400,
51,0,51,0,259.3794716000557,,,,,,,,,259.3632976000663,259.39620529999956,262.3964060000144,264.3801689000102,264.3801689000102,264.3631192999892,sal,GS09,01,False,2024-08-07_15h51.23.287,Gratings_vis_devJG_v0.6,2024.1.5,None,2024-08-07 15h51.35.866093 -0400,
52,0,52,0,264.3801689000102,,,,,,,,,264.3633984000189,264.39621699997224,267.3965020000469,269.3794247000478,269.3794247000478,269.3633874000516,sal,GS09,01,False,2024-08-07_15h51.23.287,Gratings_vis_devJG_v0.6,2024.1.5,None,2024-08-07 15h51.35.866093 -0400,
53,0,53,0,269.3794247000478,,,,,,,,,269.3636318000499,269.39696140005253,272.3962781999726,274.37950899999123,274.37950899999123,274.36382079997566,sal,GS09,01,False,2024-08-07_15h51.23.287,Gratings_vis_devJG_v0.6,2024.1.5,None,2024-08-07 15h51.35.866093 -0400,
54,0,54,0,274.37950899999123,,,,,,,,,274.36409100005403,274.39713209995534,277.39632489997894,279.37938239995856,279.37938239995856,279.36327960004564,sal,GS09,01,False,2024-08-07_15h51.23.287,Gratings_vis_devJG_v0.6,2024.1.5,None,2024-08-07 15h51.35.866093 -0400,
55,0,55,0,279.37938239995856,,,,,,,,,279.3635511000175,279.3965115000028,282.3962912999559,284.3801767999539,284.3801767999539,284.3632926000282,sal,GS09,01,False,2024-08-07_15h51.23.287,Gratings_vis_devJG_v0.6,2024.1.5,None,2024-08-07 15h51.35.866093 -0400,
56,0,56,0,284.3801767999539,,,,,,,,,284.36354399996344,284.3968326000031,287.396315400023,289.38024820003193,289.38024820003193,289.3628642000258,sal,GS09,01,False,2024-08-07_15h51.23.287,Gratings_vis_devJG_v0.6,2024.1.5,None,2024-08-07 15h51.35.866093 -0400,
57,0,57,0,289.38024820003193,,,,,,,,,289.3631171999732,289.3965578000061,292.3970266999677,294.380619600066,294.380619600066,294.3628253999632,sal,GS09,01,False,2024-08-07_15h51.23.287,Gratings_vis_devJG_v0.6,2024.1.5,None,2024-08-07 15h51.35.866093 -0400,
58,0,58,0,294.380619600066,,,,,,,,,294.3630705999676,294.39722629997414,297.39616630005185,299.37931700004265,299.37931700004265,299.3632120999973,sal,GS09,01,False,2024-08-07_15h51.23.287,Gratings_vis_devJG_v0.6,2024.1.5,None,2024-08-07 15h51.35.866093 -0400,
59,0,59,0,299.37931700004265,,,,,,,,,299.36346380005125,299.3973155999556,302.3961246999679,304.3792113000527,304.3792113000527,304.36276210006326,sal,GS09,01,False,2024-08-07_15h51.23.287,Gratings_vis_devJG_v0.6,2024.1.5,None,2024-08-07 15h51.35.866093 -0400,
60,0,60,0,304.3792113000527,,,,,,,,,304.3630103999749,304.39755470003,307.39606870000716,309.37924120004755,309.37924120004755,309.362905099988,sal,GS09,01,False,2024-08-07_15h51.23.287,Gratings_vis_devJG_v0.6,2024.1.5,None,2024-08-07 15h51.35.866093 -0400,
61,0,61,0,309.37924120004755,,,,,,,,,309.36314400006086,309.39598260005005,312.3960780999623,314.3791858999757,314.3791858999757,314.362767899991,sal,GS09,01,False,2024-08-07_15h51.23.287,Gratings_vis_devJG_v0.6,2024.1.5,None,2024-08-07 15h51.35.866093 -0400,
62,0,62,0,314.3791858999757,,,,,,,,,314.36302010004874,314.39591239998117,317.396262699971,319.37912679999135,319.37912679999135,319.36271709995344,sal,GS09,01,False,2024-08-07_15h51.23.287,Gratings_vis_devJG_v0.6,2024.1.5,None,2024-08-07 15h51.35.866093 -0400,
63,0,63,0,319.37912679999135,,,,,,,,,319.36296489997767,319.3958466000622,322.39620920002926,324.3792334999889,324.3792334999889,324.36283120000735,sal,GS09,01,False,2024-08-07_15h51.23.287,Gratings_vis_devJG_v0.6,2024.1.5,None,2024-08-07 15h51.35.866093 -0400,
64,0,64,0,324.3792334999889,,,,,,,,,324.3630813000491,324.39591790002305,327.3964720000513,329.3792792999884,329.3792792999884,329.3628010000102,sal,GS09,01,False,2024-08-07_15h51.23.287,Gratings_vis_devJG_v0.6,2024.1.5,None,2024-08-07 15h51.35.866093 -0400,
65,0,65,0,329.3792792999884,,,,,,,,,329.3630578999873,329.39595180004835,332.39676469995175,334.37917129998095,334.37917129998095,334.3633240000345,sal,GS09,01,False,2024-08-07_15h51.23.287,Gratings_vis_devJG_v0.6,2024.1.5,None,2024-08-07 15h51.35.866093 -0400,
66,0,66,0,334.37917129998095,,,,,,,,,334.3638321000617,334.3959687000606,337.39701179997064,339.37906840001233,339.37906840001233,339.36315150000155,sal,GS09,01,False,2024-08-07_15h51.23.287,Gratings_vis_devJG_v0.6,2024.1.5,None,2024-08-07 15h51.35.866093 -0400,
67,0,67,0,339.37906840001233,,,,,,,,,339.36339600000065,339.3958459000569,342.3973037999822,344.3791863999795,344.3791863999795,344.3631464999635,sal,GS09,01,False,2024-08-07_15h51.23.287,Gratings_vis_devJG_v0.6,2024.1.5,None,2024-08-07 15h51.35.866093 -0400,
68,0,68,0,344.3791863999795,,,,,,,,,344.3633998000296,344.39589769998565,347.3976270999992,349.37939570005983,349.37939570005983,349.36309510003775,sal,GS09,01,False,2024-08-07_15h51.23.287,Gratings_vis_devJG_v0.6,2024.1.5,None,2024-08-07 15h51.35.866093 -0400,
69,0,69,0,349.37939570005983,,,,,,,,,349.3633560000453,349.3977637999924,352.3978924000403,354.379680300015,354.379680300015,354.36355120001826,sal,GS09,01,False,2024-08-07_15h51.23.287,Gratings_vis_devJG_v0.6,2024.1.5,None,2024-08-07 15h51.35.866093 -0400,
70,0,70,0,354.379680300015,,,,,,,,,354.3637985000387,354.39643540000543,357.3982961999718,359.37994440004695,359.37994440004695,359.3635018999921,sal,GS09,01,False,2024-08-07_15h51.23.287,Gratings_vis_devJG_v0.6,2024.1.5,None,2024-08-07 15h51.35.866093 -0400,
71,0,71,0,359.37994440004695,,,,,,,,,359.36374609998893,359.396778000053,362.39850849995855,364.38021870004013,364.38021870004013,364.362427999964,sal,GS09,01,False,2024-08-07_15h51.23.287,Gratings_vis_devJG_v0.6,2024.1.5,None,2024-08-07 15h51.35.866093 -0400,
72,0,72,0,364.38021870004013,,,,,,,,,364.3626704000635,364.3956064999802,367.3988580000587,369.3788181999698,369.3788181999698,369.3626378000481,sal,GS09,01,False,2024-08-07_15h51.23.287,Gratings_vis_devJG_v0.6,2024.1.5,None,2024-08-07 15h51.35.866093 -0400,
73,0,73,0,369.3788181999698,,,,,,,,,369.3628797000274,369.3957659000298,372.39560180006083,374.3787953000283,374.3787953000283,374.36236939998344,sal,GS09,01,False,2024-08-07_15h51.23.287,Gratings_vis_devJG_v0.6,2024.1.5,None,2024-08-07 15h51.35.866093 -0400,
74,0,74,0,374.3787953000283,,,,,,,,,374.36262729996815,374.39549070002977,377.3956093000015,379.37873850006144,379.37873850006144,379.3626431999728,sal,GS09,01,False,2024-08-07_15h51.23.287,Gratings_vis_devJG_v0.6,2024.1.5,None,2024-08-07 15h51.35.866093 -0400,
75,0,75,0,379.37873850006144,,,,,,,,,379.3629331999691,379.39553710003383,382.39592819998506,384.3786729000276,384.3786729000276,384.3622957000043,sal,GS09,01,False,2024-08-07_15h51.23.287,Gratings_vis_devJG_v0.6,2024.1.5,None,2024-08-07 15h51.35.866093 -0400,
76,0,76,0,384.3786729000276,,,,,,,,,384.36258249997627,384.3956822999753,387.39580379996914,389.37869809998665,389.37869809998665,389.36241030006204,sal,GS09,01,False,2024-08-07_15h51.23.287,Gratings_vis_devJG_v0.6,2024.1.5,None,2024-08-07 15h51.35.866093 -0400,
77,0,77,0,389.37869809998665,,,,,,,,,389.36265649995767,389.39565940003376,392.39552180003375,394.3785945000127,394.3785945000127,394.36226099997293,sal,GS09,01,False,2024-08-07_15h51.23.287,Gratings_vis_devJG_v0.6,2024.1.5,None,2024-08-07 15h51.35.866093 -0400,
78,0,78,0,394.3785945000127,,,,,,,,,394.3625147000421,394.39562760002445,397.3956153000472,399.37879019998945,399.37879019998945,399.3629668999929,sal,GS09,01,False,2024-08-07_15h51.23.287,Gratings_vis_devJG_v0.6,2024.1.5,None,2024-08-07 15h51.35.866093 -0400,
79,0,79,0,399.37879019998945,,,,,,,,,399.36322289996315,399.3958789999597,402.3956419000169,404.37870100000873,404.37870100000873,404.3623076999793,sal,GS09,01,False,2024-08-07_15h51.23.287,Gratings_vis_devJG_v0.6,2024.1.5,None,2024-08-07 15h51.35.866093 -0400,
80,0,80,0,404.37870100000873,,,,,,,,,404.362562000053,404.39552050002385,407.39546250004787,409.37867090001237,409.37867090001237,409.3626997000538,sal,GS09,01,False,2024-08-07_15h51.23.287,Gratings_vis_devJG_v0.6,2024.1.5,None,2024-08-07 15h51.35.866093 -0400,
81,0,81,0,409.37867090001237,,,,,,,,,409.3631861000322,409.39553760003764,412.3956735000247,414.3786348999711,414.3786348999711,414.36252560000867,sal,GS09,01,False,2024-08-07_15h51.23.287,Gratings_vis_devJG_v0.6,2024.1.5,None,2024-08-07 15h51.35.866093 -0400,
82,0,82,0,414.3786348999711,,,,,,,,,414.36279729998205,414.39529590005986,417.3957890999736,419.3786355999764,419.3786355999764,419.3621533999685,sal,GS09,01,False,2024-08-07_15h51.23.287,Gratings_vis_devJG_v0.6,2024.1.5,None,2024-08-07 15h51.35.866093 -0400,
83,0,83,0,419.3786355999764,,,,,,,,,419.36239779996686,419.3954176000552,422.39561650005635,424.37885520001873,424.37885520001873,424.3628384000622,sal,GS09,01,False,2024-08-07_15h51.23.287,Gratings_vis_devJG_v0.6,2024.1.5,None,2024-08-07 15h51.35.866093 -0400,
84,0,84,0,424.37885520001873,,,,,,,,,424.3630856999662,424.39543180004694,427.39558829995804,429.37855380005203,429.37855380005203,429.3620512000052,sal,GS09,01,False,2024-08-07_15h51.23.287,Gratings_vis_devJG_v0.6,2024.1.5,None,2024-08-07 15h51.35.866093 -0400,
85,0,85,0,429.37855380005203,,,,,,,,,429.3623147000326,429.3954316000454,432.3955066000344,434.3785452999873,434.3785452999873,434.36247860000003,sal,GS09,01,False,2024-08-07_15h51.23.287,Gratings_vis_devJG_v0.6,2024.1.5,None,2024-08-07 15h51.35.866093 -0400,
86,0,86,0,434.3785452999873,,,,,,,,,434.36273010005243,434.39538520004135,437.3956512999721,439.378527999972,439.378527999972,439.3621378999669,sal,GS09,01,False,2024-08-07_15h51.23.287,Gratings_vis_devJG_v0.6,2024.1.5,None,2024-08-07 15h51.35.866093 -0400,
87,0,87,0,439.378527999972,,,,,,,,,439.36238359997515,439.39517739997245,442.3952972999541,444.3784876000136,444.3784876000136,444.3624045000179,sal,GS09,01,False,2024-08-07_15h51.23.287,Gratings_vis_devJG_v0.6,2024.1.5,None,2024-08-07 15h51.35.866093 -0400,
88,0,88,0,444.3784876000136,,,,,,,,,444.3626521000406,444.39512380003,447.39532929996494,449.37870100000873,449.37870100000873,449.3623001000378,sal,GS09,01,False,2024-08-07_15h51.23.287,Gratings_vis_devJG_v0.6,2024.1.5,None,2024-08-07 15h51.35.866093 -0400,
89,0,89,0,449.37870100000873,,,,,,,,,449.36280919995625,449.39535310002975,452.3955914999824,454.37842900003307,454.37842900003307,454.362617900013,sal,GS09,01,False,2024-08-07_15h51.23.287,Gratings_vis_devJG_v0.6,2024.1.5,None,2024-08-07 15h51.35.866093 -0400,
90,0,90,0,454.37842900003307,,,,,,,,,454.36310550000053,454.3952458000276,457.3951879000524,459.3786442000419,459.3786442000419,459.3619623000268,sal,GS09,01,False,2024-08-07_15h51.23.287,Gratings_vis_devJG_v0.6,2024.1.5,None,2024-08-07 15h51.35.866093 -0400,
91,0,91,0,459.3786442000419,,,,,,,,,459.3622146999696,459.39513129997067,462.3955243000528,464.3783823000267,464.3783823000267,464.3623816999607,sal,GS09,01,False,2024-08-07_15h51.23.287,Gratings_vis_devJG_v0.6,2024.1.5,None,2024-08-07 15h51.35.866093 -0400,
92,0,92,0,464.3783823000267,,,,,,,,,464.3626378000481,464.39506929996423,467.3951792999869,469.378390799975,469.378390799975,469.36188890004996,sal,GS09,01,False,2024-08-07_15h51.23.287,Gratings_vis_devJG_v0.6,2024.1.5,None,2024-08-07 15h51.35.866093 -0400,
93,0,93,0,469.378390799975,,,,,,,,,469.36214890005067,469.395032600034,472.39515029999893,474.37835450004786,474.37835450004786,474.3622483999934,sal,GS09,01,False,2024-08-07_15h51.23.287,Gratings_vis_devJG_v0.6,2024.1.5,None,2024-08-07 15h51.35.866093 -0400,
94,0,94,0,474.37835450004786,,,,,,,,,474.3625002000481,474.39493940002285,477.3951011999743,479.3783427999588,479.3783427999588,479.3619997999631,sal,GS09,01,False,2024-08-07_15h51.23.287,Gratings_vis_devJG_v0.6,2024.1.5,None,2024-08-07 15h51.35.866093 -0400,
95,0,95,0,479.3783427999588,,,,,,,,,479.36249750002753,479.3950726999901,482.395184300025,484.3783620999893,484.3783620999893,484.36235359997954,sal,GS09,01,False,2024-08-07_15h51.23.287,Gratings_vis_devJG_v0.6,2024.1.5,None,2024-08-07 15h51.35.866093 -0400,
96,0,96,0,484.3783620999893,,,,,,,,,484.3625952999573,484.39497510006186,487.39526130002923,489.37833850004245,489.37833850004245,489.36177089996636,sal,GS09,01,False,2024-08-07_15h51.23.287,Gratings_vis_devJG_v0.6,2024.1.5,None,2024-08-07 15h51.35.866093 -0400,
97,0,97,0,489.37833850004245,,,,,,,,,489.36200980003923,489.39496659999713,492.39508299995214,494.37821610004175,494.37821610004175,494.3617751999991,sal,GS09,01,False,2024-08-07_15h51.23.287,Gratings_vis_devJG_v0.6,2024.1.5,None,2024-08-07 15h51.35.866093 -0400,
98,0,98,0,494.37821610004175,,,,,,,,,494.3620141999563,494.39492960006464,497.39528609998524,499.3782147000311,499.3782147000311,499.36185840005055,sal,GS09,01,False,2024-08-07_15h51.23.287,Gratings_vis_devJG_v0.6,2024.1.5,None,2024-08-07 15h51.35.866093 -0400,
99,0,99,0,499.3782147000311,,,,,,,,,499.36210809997283,499.39509540004656,502.3950127999997,504.37821720005013,504.37821720005013,504.36167500005104,sal,GS09,01,False,2024-08-07_15h51.23.287,Gratings_vis_devJG_v0.6,2024.1.5,None,2024-08-07 15h51.35.866093 -0400,
100,0,100,0,504.37821720005013,,,,,,,,,504.3619378999574,504.39484780002385,507.3949780999683,509.3781330999918,509.3781330999918,509.3624418999534,sal,GS09,01,False,2024-08-07_15h51.23.287,Gratings_vis_devJG_v0.6,2024.1.5,None,2024-08-07 15h51.35.866093 -0400,
101,0,101,0,509.3781330999918,,,,,,,,,509.36269380000886,509.3948192000389,512.3949082000181,514.3780959000578,514.3780959000578,514.3617079999531,sal,GS09,01,False,2024-08-07_15h51.23.287,Gratings_vis_devJG_v0.6,2024.1.5,None,2024-08-07 15h51.35.866093 -0400,
102,0,102,0,514.3780959000578,,,,,,,,,514.3619440000039,514.3948634000262,517.3949157999596,519.3780818999512,519.3780818999512,519.3616733000381,sal,GS09,01,False,2024-08-07_15h51.23.287,Gratings_vis_devJG_v0.6,2024.1.5,None,2024-08-07 15h51.35.866093 -0400,
103,0,103,0,519.3780818999512,,,,,,,,,519.361921899952,519.394730500062,522.394965399988,524.3780791000463,524.3780791000463,524.3620230000233,sal,GS09,01,False,2024-08-07_15h51.23.287,Gratings_vis_devJG_v0.6,2024.1.5,None,2024-08-07 15h51.35.866093 -0400,
104,0,104,0,524.3780791000463,,,,,,,,,524.3622714000521,524.3947946999688,527.3949235000182,529.378046900034,529.378046900034,529.3618883000454,sal,GS09,01,False,2024-08-07_15h51.23.287,Gratings_vis_devJG_v0.6,2024.1.5,None,2024-08-07 15h51.35.866093 -0400,
105,0,105,0,529.378046900034,,,,,,,,,529.3621252999874,529.3946789000183,532.3949678000063,534.3782336000586,534.3782336000586,534.3618660999928,sal,GS09,01,False,2024-08-07_15h51.23.287,Gratings_vis_devJG_v0.6,2024.1.5,None,2024-08-07 15h51.35.866093 -0400,
106,0,106,0,534.3782336000586,,,,,,,,,534.3621235999744,534.394682400045,537.394912000047,539.3780285000103,539.3780285000103,539.3615469000069,sal,GS09,01,False,2024-08-07_15h51.23.287,Gratings_vis_devJG_v0.6,2024.1.5,None,2024-08-07 15h51.35.866093 -0400,
107,0,107,0,539.3780285000103,,,,,,,,,539.3618019999703,539.3946943000192,542.394899200066,544.3780081999721,544.3780081999721,544.3615573999705,sal,GS09,01,False,2024-08-07_15h51.23.287,Gratings_vis_devJG_v0.6,2024.1.5,None,2024-08-07 15h51.35.866093 -0400,
108,0,108,0,544.3780081999721,,,,,,,,,544.3617928000167,544.3947463000659,547.394994399976,549.3779229000211,549.3779229000211,549.3615117999725,sal,GS09,01,False,2024-08-07_15h51.23.287,Gratings_vis_devJG_v0.6,2024.1.5,None,2024-08-07 15h51.35.866093 -0400,
109,0,109,0,549.3779229000211,,,,,,,,,549.3617636000272,549.3946313000051,552.3947904000524,554.3779424000531,554.3779424000531,554.3615973000415,sal,GS09,01,False,2024-08-07_15h51.23.287,Gratings_vis_devJG_v0.6,2024.1.5,None,2024-08-07 15h51.35.866093 -0400,
110,0,110,0,554.3779424000531,,,,,,,,,554.3618393000215,554.3946166000096,557.3947526999982,559.3778983000666,559.3778983000666,559.3614524999866,sal,GS09,01,False,2024-08-07_15h51.23.287,Gratings_vis_devJG_v0.6,2024.1.5,None,2024-08-07 15h51.35.866093 -0400,
111,0,111,0,559.3778983000666,,,,,,,,,559.3617162000155,559.3945022999542,562.3947244000155,564.3778246999718,564.3778246999718,564.3618398000253,sal,GS09,01,False,2024-08-07_15h51.23.287,Gratings_vis_devJG_v0.6,2024.1.5,None,2024-08-07 15h51.35.866093 -0400,
112,0,112,0,564.3778246999718,,,,,,,,,564.3620934999781,564.3944856000599,567.3946922000032,569.3778737999965,569.3778737999965,569.361986999982,sal,GS09,01,False,2024-08-07_15h51.23.287,Gratings_vis_devJG_v0.6,2024.1.5,None,2024-08-07 15h51.35.866093 -0400,
113,0,113,0,569.3778737999965,,,,,,,,,569.3622404000489,569.3945471000625,572.3946684000548,574.3778211000608,574.3778211000608,574.3616236000089,sal,GS09,01,False,2024-08-07_15h51.23.287,Gratings_vis_devJG_v0.6,2024.1.5,None,2024-08-07 15h51.35.866093 -0400,
114,0,114,0,574.3778211000608,,,,,,,,,574.3618818999967,574.3945149000501,577.3947066999972,579.3786197999725,579.3786197999725,579.3615253999596,sal,GS09,01,False,2024-08-07_15h51.23.287,Gratings_vis_devJG_v0.6,2024.1.5,None,2024-08-07 15h51.35.866093 -0400,
115,0,115,0,579.3786197999725,,,,,,,,,579.3617869999725,579.3944816000294,582.3947476999601,584.3784952999558,584.3784952999558,584.3629444000544,sal,GS09,01,False,2024-08-07_15h51.23.287,Gratings_vis_devJG_v0.6,2024.1.5,None,2024-08-07 15h51.35.866093 -0400,
116,0,116,0,584.3784952999558,,,,,,,,,584.3631831000093,584.3960792999715,587.3967215999728,589.3778018000303,589.3778018000303,589.362492699991,sal,GS09,01,False,2024-08-07_15h51.23.287,Gratings_vis_devJG_v0.6,2024.1.5,None,2024-08-07 15h51.35.866093 -0400,
117,0,117,0,589.3778018000303,,,,,,,,,589.3627393000061,589.3955961000174,592.3964818000095,594.3792718000477,594.3792718000477,594.3613173000049,sal,GS09,01,False,2024-08-07_15h51.23.287,Gratings_vis_devJG_v0.6,2024.1.5,None,2024-08-07 15h51.35.866093 -0400,
118,0,118,0,594.3792718000477,,,,,,,,,594.361612000037,594.3956741000293,597.3945340999635,599.3792457999662,599.3792457999662,599.3612281000242,sal,GS09,01,False,2024-08-07_15h51.23.287,Gratings_vis_devJG_v0.6,2024.1.5,None,2024-08-07 15h51.35.866093 -0400,
119,0,119,0,599.3792457999662,,,,,,,,,599.3614653999684,599.3945790999569,602.3944943000097,604.4007117999718,604.4007117999718,604.3616100000218,sal,GS09,01,False,2024-08-07_15h51.23.287,Gratings_vis_devJG_v0.6,2024.1.5,None,2024-08-07 15h51.35.866093 -0400,
