trials.thisRepN,trials.thisTrialN,trials.thisN,trials.thisIndex,thisRow.t,notes,nidaqTrigger.started,text_waiting_message.started,key_resp.started,nidaqTrigger.stopped,key_resp.keys,key_resp.rt,key_resp.duration,display_gratings.started,stim_grayScreen.started,stim_grating.started,display_gratings.stopped,Protocol ID,Subject ID,Session ID,Wait for Trigger,date,expName,psychopyVersion,frameRate,expStart,
,,,,,,0.00697240000590682,0.016884000040590763,0.016884000040590763,23.352540599997155,space,23.329757199971937,None,,,,,baseline,10,01,False,2024-08-05_14h18.23.059,Gratings_vis_devJG_v0.6,2024.1.5,None,2024-08-05 14h18.41.474659 -0400,
0,0,0,0,23.46959999995306,,,,,,,,,23.405604199972004,23.46959999995306,26.416778899962083,28.416953700012527,baseline,10,01,False,2024-08-05_14h18.23.059,Gratings_vis_devJG_v0.6,2024.1.5,None,2024-08-05 14h18.41.474659 -0400,
1,0,1,0,28.433511500013992,,,,,,,,,28.417246000026353,28.433511500013992,31.41716820001602,33.41885190003086,baseline,10,01,False,2024-08-05_14h18.23.059,Gratings_vis_devJG_v0.6,2024.1.5,None,2024-08-05 14h18.41.474659 -0400,
2,0,2,0,33.43357680004556,,,,,,,,,33.41914620005991,33.43357680004556,36.41709470003843,38.416988700046204,baseline,10,01,False,2024-08-05_14h18.23.059,Gratings_vis_devJG_v0.6,2024.1.5,None,2024-08-05 14h18.41.474659 -0400,
3,0,3,0,38.43366680003237,,,,,,,,,38.417247500037774,38.43366680003237,41.41740979999304,43.41692820005119,baseline,10,01,False,2024-08-05_14h18.23.059,Gratings_vis_devJG_v0.6,2024.1.5,None,2024-08-05 14h18.41.474659 -0400,
4,0,4,0,43.43353330006357,,,,,,,,,43.41719409998041,43.43353330006357,46.41722629999276,48.416882100049406,baseline,10,01,False,2024-08-05_14h18.23.059,Gratings_vis_devJG_v0.6,2024.1.5,None,2024-08-05 14h18.41.474659 -0400,
5,0,5,0,48.4335996999871,,,,,,,,,48.41714040003717,48.4335996999871,51.41746669996064,53.41686830006074,baseline,10,01,False,2024-08-05_14h18.23.059,Gratings_vis_devJG_v0.6,2024.1.5,None,2024-08-05 14h18.41.474659 -0400,
6,0,6,0,53.43354670004919,,,,,,,,,53.417131099966355,53.43354670004919,56.41772300004959,58.4168332000263,baseline,10,01,False,2024-08-05_14h18.23.059,Gratings_vis_devJG_v0.6,2024.1.5,None,2024-08-05 14h18.41.474659 -0400,
7,0,7,0,58.43347329995595,,,,,,,,,58.41714499995578,58.43347329995595,61.417975799995475,63.4168803000357,baseline,10,01,False,2024-08-05_14h18.23.059,Gratings_vis_devJG_v0.6,2024.1.5,None,2024-08-05 14h18.41.474659 -0400,
8,0,8,0,63.43341319996398,,,,,,,,,63.417133199982345,63.43341319996398,66.41828280000482,68.41694579995237,baseline,10,01,False,2024-08-05_14h18.23.059,Gratings_vis_devJG_v0.6,2024.1.5,None,2024-08-05 14h18.41.474659 -0400,
9,0,9,0,68.4334693000419,,,,,,,,,68.41719910001848,68.4334693000419,71.4185773000354,73.41714280005544,baseline,10,01,False,2024-08-05_14h18.23.059,Gratings_vis_devJG_v0.6,2024.1.5,None,2024-08-05 14h18.41.474659 -0400,
10,0,10,0,73.43379409995396,,,,,,,,,73.41741360002197,73.43379409995396,76.41891140001826,78.41743799997494,baseline,10,01,False,2024-08-05_14h18.23.059,Gratings_vis_devJG_v0.6,2024.1.5,None,2024-08-05 14h18.41.474659 -0400,
11,0,11,0,78.4340204000473,,,,,,,,,78.41769230004866,78.4340204000473,81.41920710005797,83.41765279998071,baseline,10,01,False,2024-08-05_14h18.23.059,Gratings_vis_devJG_v0.6,2024.1.5,None,2024-08-05 14h18.41.474659 -0400,
12,0,12,0,83.4343513000058,,,,,,,,,83.4179002000019,83.4343513000058,86.41950670001097,88.41664059995674,baseline,10,01,False,2024-08-05_14h18.23.059,Gratings_vis_devJG_v0.6,2024.1.5,None,2024-08-05 14h18.41.474659 -0400,
13,0,13,0,88.43449989997316,,,,,,,,,88.4169516999973,88.43449989997316,91.41706330003217,93.41676789999474,baseline,10,01,False,2024-08-05_14h18.23.059,Gratings_vis_devJG_v0.6,2024.1.5,None,2024-08-05 14h18.41.474659 -0400,
14,0,14,0,93.4332480999874,,,,,,,,,93.41703749995213,93.4332480999874,96.41715580003802,98.41651690006256,baseline,10,01,False,2024-08-05_14h18.23.059,Gratings_vis_devJG_v0.6,2024.1.5,None,2024-08-05 14h18.41.474659 -0400,
15,0,15,0,98.43313669995405,,,,,,,,,98.41677210002672,98.43313669995405,101.41695440001786,103.41647070006002,baseline,10,01,False,2024-08-05_14h18.23.059,Gratings_vis_devJG_v0.6,2024.1.5,None,2024-08-05 14h18.41.474659 -0400,
16,0,16,0,103.43319400004111,,,,,,,,,103.41672580002341,103.43319400004111,106.41667289996985,108.4165243000025,baseline,10,01,False,2024-08-05_14h18.23.059,Gratings_vis_devJG_v0.6,2024.1.5,None,2024-08-05 14h18.41.474659 -0400,
17,0,17,0,108.4330643999856,,,,,,,,,108.41691549995448,108.4330643999856,111.41670840000734,113.41648670006543,baseline,10,01,False,2024-08-05_14h18.23.059,Gratings_vis_devJG_v0.6,2024.1.5,None,2024-08-05 14h18.41.474659 -0400,
18,0,18,0,113.43314600002486,,,,,,,,,113.41675800003577,113.43314600002486,116.41657939995639,118.41660270001739,baseline,10,01,False,2024-08-05_14h18.23.059,Gratings_vis_devJG_v0.6,2024.1.5,None,2024-08-05 14h18.41.474659 -0400,
19,0,19,0,118.43302440003026,,,,,,,,,118.41686890006531,118.43302440003026,121.41691729996819,123.41640490002465,baseline,10,01,False,2024-08-05_14h18.23.059,Gratings_vis_devJG_v0.6,2024.1.5,None,2024-08-05 14h18.41.474659 -0400,
20,0,20,0,123.43311490002088,,,,,,,,,123.41666880005505,123.43311490002088,126.41659120004624,128.41648889996577,baseline,10,01,False,2024-08-05_14h18.23.059,Gratings_vis_devJG_v0.6,2024.1.5,None,2024-08-05 14h18.41.474659 -0400,
21,0,21,0,128.43323399999645,,,,,,,,,128.41674540005624,128.43323399999645,131.41653150005732,133.41638619999867,baseline,10,01,False,2024-08-05_14h18.23.059,Gratings_vis_devJG_v0.6,2024.1.5,None,2024-08-05 14h18.41.474659 -0400,
22,0,22,0,133.43302620004397,,,,,,,,,133.41665510006715,133.43302620004397,136.4165345999645,138.41637340001762,baseline,10,01,False,2024-08-05_14h18.23.059,Gratings_vis_devJG_v0.6,2024.1.5,None,2024-08-05 14h18.41.474659 -0400,
23,0,23,0,138.43302880006377,,,,,,,,,138.41663029999472,138.43302880006377,141.4164850000525,143.41633709997404,baseline,10,01,False,2024-08-05_14h18.23.059,Gratings_vis_devJG_v0.6,2024.1.5,None,2024-08-05 14h18.41.474659 -0400,
24,0,24,0,143.43311240000185,,,,,,,,,143.41659859998617,143.43311240000185,146.41648430004716,148.41642180003691,baseline,10,01,False,2024-08-05_14h18.23.059,Gratings_vis_devJG_v0.6,2024.1.5,None,2024-08-05 14h18.41.474659 -0400,
25,0,25,0,148.43301260005683,,,,,,,,,148.41667649999727,148.43301260005683,151.41642839997075,153.41626540001016,baseline,10,01,False,2024-08-05_14h18.23.059,Gratings_vis_devJG_v0.6,2024.1.5,None,2024-08-05 14h18.41.474659 -0400,
26,0,26,0,153.43299150001258,,,,,,,,,153.41655209998135,153.43299150001258,156.41650729998946,158.41634080000222,baseline,10,01,False,2024-08-05_14h18.23.059,Gratings_vis_devJG_v0.6,2024.1.5,None,2024-08-05 14h18.41.474659 -0400,
27,0,27,0,158.43311860004906,,,,,,,,,158.416642999975,158.43311860004906,161.41646330000367,163.41625610005576,baseline,10,01,False,2024-08-05_14h18.23.059,Gratings_vis_devJG_v0.6,2024.1.5,None,2024-08-05 14h18.41.474659 -0400,
28,0,28,0,163.4328830000013,,,,,,,,,163.41655439999886,163.4328830000013,166.41661880002357,168.41629620001186,baseline,10,01,False,2024-08-05_14h18.23.059,Gratings_vis_devJG_v0.6,2024.1.5,None,2024-08-05 14h18.41.474659 -0400,
29,0,29,0,168.43284899997525,,,,,,,,,168.4165582000278,168.43284899997525,171.41635319998022,173.41619580006227,baseline,10,01,False,2024-08-05_14h18.23.059,Gratings_vis_devJG_v0.6,2024.1.5,None,2024-08-05 14h18.41.474659 -0400,
30,0,30,0,173.43285159999505,,,,,,,,,173.4164513000287,173.43285159999505,176.4163845999865,178.416232699994,baseline,10,01,False,2024-08-05_14h18.23.059,Gratings_vis_devJG_v0.6,2024.1.5,None,2024-08-05 14h18.41.474659 -0400,
31,0,31,0,178.4328564000316,,,,,,,,,178.41650030005258,178.4328564000316,181.41629960003775,183.4161155000329,baseline,10,01,False,2024-08-05_14h18.23.059,Gratings_vis_devJG_v0.6,2024.1.5,None,2024-08-05 14h18.41.474659 -0400,
32,0,32,0,183.43282760004513,,,,,,,,,183.41640250000637,183.43282760004513,186.4162984000286,188.41612910002004,baseline,10,01,False,2024-08-05_14h18.23.059,Gratings_vis_devJG_v0.6,2024.1.5,None,2024-08-05 14h18.41.474659 -0400,
33,0,33,0,188.43279500002973,,,,,,,,,188.4163794000633,188.43279500002973,191.41659949999303,193.41610869998112,baseline,10,01,False,2024-08-05_14h18.23.059,Gratings_vis_devJG_v0.6,2024.1.5,None,2024-08-05 14h18.41.474659 -0400,
34,0,34,0,193.43271920003463,,,,,,,,,193.41639430006035,193.43271920003463,196.41615880001336,198.41610220004804,baseline,10,01,False,2024-08-05_14h18.23.059,Gratings_vis_devJG_v0.6,2024.1.5,None,2024-08-05 14h18.41.474659 -0400,
35,0,35,0,198.4327151000034,,,,,,,,,198.41638880001847,198.4327151000034,201.4165442000376,203.4160595999565,baseline,10,01,False,2024-08-05_14h18.23.059,Gratings_vis_devJG_v0.6,2024.1.5,None,2024-08-05 14h18.41.474659 -0400,
36,0,36,0,203.4326885000337,,,,,,,,,203.4163160000462,203.4326885000337,206.41620550001971,208.41602790006436,baseline,10,01,False,2024-08-05_14h18.23.059,Gratings_vis_devJG_v0.6,2024.1.5,None,2024-08-05 14h18.41.474659 -0400,
37,0,37,0,208.43266980000772,,,,,,,,,208.41629990004003,208.43266980000772,211.41622919996735,213.41603359999135,baseline,10,01,False,2024-08-05_14h18.23.059,Gratings_vis_devJG_v0.6,2024.1.5,None,2024-08-05 14h18.41.474659 -0400,
38,0,38,0,213.43265920004342,,,,,,,,,213.4162997000385,213.43265920004342,216.416116300039,218.41600470000412,baseline,10,01,False,2024-08-05_14h18.23.059,Gratings_vis_devJG_v0.6,2024.1.5,None,2024-08-05 14h18.41.474659 -0400,
39,0,39,0,218.43262880004477,,,,,,,,,218.41627529996913,218.43262880004477,221.41636959998868,223.41609980002977,baseline,10,01,False,2024-08-05_14h18.23.059,Gratings_vis_devJG_v0.6,2024.1.5,None,2024-08-05 14h18.41.474659 -0400,
40,0,40,0,223.43280900001992,,,,,,,,,223.4163755000336,223.43280900001992,226.41607939999085,228.41609780001454,baseline,10,01,False,2024-08-05_14h18.23.059,Gratings_vis_devJG_v0.6,2024.1.5,None,2024-08-05 14h18.41.474659 -0400,
41,0,41,0,228.43263479997404,,,,,,,,,228.41642020002473,228.43263479997404,231.4160339999944,233.4159442000091,baseline,10,01,False,2024-08-05_14h18.23.059,Gratings_vis_devJG_v0.6,2024.1.5,None,2024-08-05 14h18.41.474659 -0400,
42,0,42,0,233.43254089995753,,,,,,,,,233.41620209999382,233.43254089995753,236.41602510004304,238.41588119999506,baseline,10,01,False,2024-08-05_14h18.23.059,Gratings_vis_devJG_v0.6,2024.1.5,None,2024-08-05 14h18.41.474659 -0400,
43,0,43,0,238.43250110000372,,,,,,,,,238.41613649995998,238.43250110000372,241.4159662000602,243.4158982000081,baseline,10,01,False,2024-08-05_14h18.23.059,Gratings_vis_devJG_v0.6,2024.1.5,None,2024-08-05 14h18.41.474659 -0400,
44,0,44,0,243.43246429995634,,,,,,,,,243.41617089998908,243.43246429995634,246.4160957999993,248.41579070000444,baseline,10,01,False,2024-08-05_14h18.23.059,Gratings_vis_devJG_v0.6,2024.1.5,None,2024-08-05 14h18.41.474659 -0400,
45,0,45,0,248.43246320006438,,,,,,,,,248.4160526000196,248.43246320006438,251.41593170003034,253.41580850002356,baseline,10,01,False,2024-08-05_14h18.23.059,Gratings_vis_devJG_v0.6,2024.1.5,None,2024-08-05 14h18.41.474659 -0400,
46,0,46,0,253.43246969999745,,,,,,,,,253.41607090004254,253.43246969999745,256.41589209996164,258.41575559997,baseline,10,01,False,2024-08-05_14h18.23.059,Gratings_vis_devJG_v0.6,2024.1.5,None,2024-08-05 14h18.41.474659 -0400,
47,0,47,0,258.4323751999764,,,,,,,,,258.4160071000224,258.4323751999764,261.41594119998626,263.4157428999897,baseline,10,01,False,2024-08-05_14h18.23.059,Gratings_vis_devJG_v0.6,2024.1.5,None,2024-08-05 14h18.41.474659 -0400,
48,0,48,0,263.4323758999817,,,,,,,,,263.4160061000148,263.4323758999817,266.4159033000469,268.4157372000627,baseline,10,01,False,2024-08-05_14h18.23.059,Gratings_vis_devJG_v0.6,2024.1.5,None,2024-08-05 14h18.41.474659 -0400,
49,0,49,0,268.4323040000163,,,,,,,,,268.41599610005505,268.4323040000163,271.4162671000231,273.4157365000574,baseline,10,01,False,2024-08-05_14h18.23.059,Gratings_vis_devJG_v0.6,2024.1.5,None,2024-08-05 14h18.41.474659 -0400,
50,0,50,0,273.4323506000219,,,,,,,,,273.41599580005277,273.4323506000219,276.4158481999766,278.4161336000543,baseline,10,01,False,2024-08-05_14h18.23.059,Gratings_vis_devJG_v0.6,2024.1.5,None,2024-08-05 14h18.41.474659 -0400,
51,0,51,0,278.43238949996885,,,,,,,,,278.41672159999143,278.43238949996885,281.4158660999965,283.41570839995984,baseline,10,01,False,2024-08-05_14h18.23.059,Gratings_vis_devJG_v0.6,2024.1.5,None,2024-08-05 14h18.41.474659 -0400,
52,0,52,0,283.43237419996876,,,,,,,,,283.4160015999805,283.43237419996876,286.41579939995427,288.4156765000662,baseline,10,01,False,2024-08-05_14h18.23.059,Gratings_vis_devJG_v0.6,2024.1.5,None,2024-08-05 14h18.41.474659 -0400,
53,0,53,0,288.4325472000055,,,,,,,,,288.41594099998474,288.4325472000055,291.4157755000051,293.4162285999628,baseline,10,01,False,2024-08-05_14h18.23.059,Gratings_vis_devJG_v0.6,2024.1.5,None,2024-08-05 14h18.41.474659 -0400,
54,0,54,0,293.4322463000426,,,,,,,,,293.416505399975,293.4322463000426,296.4159344000509,298.4155973000452,baseline,10,01,False,2024-08-05_14h18.23.059,Gratings_vis_devJG_v0.6,2024.1.5,None,2024-08-05 14h18.41.474659 -0400,
55,0,55,0,298.4324782000622,,,,,,,,,298.41587859997526,298.4324782000622,301.4157168000238,303.41556970006786,baseline,10,01,False,2024-08-05_14h18.23.059,Gratings_vis_devJG_v0.6,2024.1.5,None,2024-08-05 14h18.41.474659 -0400,
56,0,56,0,303.4326777999522,,,,,,,,,303.4158263000427,303.4326777999522,306.4156769999536,308.41556069999933,baseline,10,01,False,2024-08-05_14h18.23.059,Gratings_vis_devJG_v0.6,2024.1.5,None,2024-08-05 14h18.41.474659 -0400,
57,0,57,0,308.43286169995554,,,,,,,,,308.4158152999589,308.43286169995554,311.415685200016,313.41557700000703,baseline,10,01,False,2024-08-05_14h18.23.059,Gratings_vis_devJG_v0.6,2024.1.5,None,2024-08-05 14h18.41.474659 -0400,
58,0,58,0,313.43215120001696,,,,,,,,,313.41584679996595,313.43215120001696,316.41562790004537,318.4155802000314,baseline,10,01,False,2024-08-05_14h18.23.059,Gratings_vis_devJG_v0.6,2024.1.5,None,2024-08-05 14h18.41.474659 -0400,
59,0,59,0,318.4321777999867,,,,,,,,,318.4158357999986,318.4321777999867,321.4158605999546,323.4155391000677,baseline,10,01,False,2024-08-05_14h18.23.059,Gratings_vis_devJG_v0.6,2024.1.5,None,2024-08-05 14h18.41.474659 -0400,
60,0,60,0,323.43210410000756,,,,,,,,,323.4158108000411,323.43210410000756,326.41563589998987,328.4174179000547,baseline,10,01,False,2024-08-05_14h18.23.059,Gratings_vis_devJG_v0.6,2024.1.5,None,2024-08-05 14h18.41.474659 -0400,
61,0,61,0,328.432392799994,,,,,,,,,328.41767450002953,328.432392799994,331.4156573000364,333.4154914000537,baseline,10,01,False,2024-08-05_14h18.23.059,Gratings_vis_devJG_v0.6,2024.1.5,None,2024-08-05 14h18.41.474659 -0400,
62,0,62,0,333.4321458999766,,,,,,,,,333.41575190005824,333.4321458999766,336.41556120000314,338.4154883000301,baseline,10,01,False,2024-08-05_14h18.23.059,Gratings_vis_devJG_v0.6,2024.1.5,None,2024-08-05 14h18.41.474659 -0400,
63,0,63,0,338.43216179998126,,,,,,,,,338.4162265000632,338.43216179998126,341.41563800000586,343.4154433000367,baseline,10,01,False,2024-08-05_14h18.23.059,Gratings_vis_devJG_v0.6,2024.1.5,None,2024-08-05 14h18.41.474659 -0400,
64,0,64,0,343.43208940001205,,,,,,,,,343.415735400049,343.43208940001205,346.41587729996536,348.4157668000553,baseline,10,01,False,2024-08-05_14h18.23.059,Gratings_vis_devJG_v0.6,2024.1.5,None,2024-08-05 14h18.41.474659 -0400,
65,0,65,0,348.4320445000194,,,,,,,,,348.4160262000514,348.4320445000194,351.41617820004467,353.4153336000163,baseline,10,01,False,2024-08-05_14h18.23.059,Gratings_vis_devJG_v0.6,2024.1.5,None,2024-08-05 14h18.41.474659 -0400,
66,0,66,0,353.4319540000288,,,,,,,,,353.4155892999843,353.4319540000288,356.41642380005214,358.41541699995287,baseline,10,01,False,2024-08-05_14h18.23.059,Gratings_vis_devJG_v0.6,2024.1.5,None,2024-08-05 14h18.41.474659 -0400,
67,0,67,0,358.4318502000533,,,,,,,,,358.4156866000267,358.4318502000533,361.41667339997366,363.41532190004364,baseline,10,01,False,2024-08-05_14h18.23.059,Gratings_vis_devJG_v0.6,2024.1.5,None,2024-08-05 14h18.41.474659 -0400,
68,0,68,0,363.431891300017,,,,,,,,,363.4155747999903,363.431891300017,366.41698620002717,368.41553939995356,baseline,10,01,False,2024-08-05_14h18.23.059,Gratings_vis_devJG_v0.6,2024.1.5,None,2024-08-05 14h18.41.474659 -0400,
69,0,69,0,368.43212480004877,,,,,,,,,368.41580259997863,368.43212480004877,371.4172706999816,373.415933100041,baseline,10,01,False,2024-08-05_14h18.23.059,Gratings_vis_devJG_v0.6,2024.1.5,None,2024-08-05 14h18.41.474659 -0400,
70,0,70,0,373.43251519999467,,,,,,,,,373.4162361000199,373.43251519999467,376.41762169997673,378.4161191000603,baseline,10,01,False,2024-08-05_14h18.23.059,Gratings_vis_devJG_v0.6,2024.1.5,None,2024-08-05 14h18.41.474659 -0400,
71,0,71,0,378.4327742999885,,,,,,,,,378.41638159996364,378.4327742999885,381.41788860003,383.4164531000424,baseline,10,01,False,2024-08-05_14h18.23.059,Gratings_vis_devJG_v0.6,2024.1.5,None,2024-08-05 14h18.41.474659 -0400,
72,0,72,0,383.4331446000142,,,,,,,,,383.4167377999984,383.4331446000142,386.4155068000546,388.41668080003,baseline,10,01,False,2024-08-05_14h18.23.059,Gratings_vis_devJG_v0.6,2024.1.5,None,2024-08-05 14h18.41.474659 -0400,
73,0,73,0,388.4320747000165,,,,,,,,,388.41694050002843,388.4320747000165,391.41854300000705,393.4151304999832,baseline,10,01,False,2024-08-05_14h18.23.059,Gratings_vis_devJG_v0.6,2024.1.5,None,2024-08-05 14h18.41.474659 -0400,
74,0,74,0,393.431670299964,,,,,,,,,393.4154139000457,393.431670299964,396.4153509000316,398.41540100006387,baseline,10,01,False,2024-08-05_14h18.23.059,Gratings_vis_devJG_v0.6,2024.1.5,None,2024-08-05 14h18.41.474659 -0400,
75,0,75,0,398.43179159995634,,,,,,,,,398.41567450005095,398.43179159995634,401.41517160006333,403.4150040000677,baseline,10,01,False,2024-08-05_14h18.23.059,Gratings_vis_devJG_v0.6,2024.1.5,None,2024-08-05 14h18.41.474659 -0400,
76,0,76,0,403.4317036999855,,,,,,,,,403.4154218999902,403.4317036999855,406.41557049995754,408.41496950003784,baseline,10,01,False,2024-08-05_14h18.23.059,Gratings_vis_devJG_v0.6,2024.1.5,None,2024-08-05 14h18.41.474659 -0400,
77,0,77,0,408.4315682000015,,,,,,,,,408.4152378999861,408.4315682000015,411.4153978000395,413.41492160002235,baseline,10,01,False,2024-08-05_14h18.23.059,Gratings_vis_devJG_v0.6,2024.1.5,None,2024-08-05 14h18.41.474659 -0400,
78,0,78,0,413.4314787000185,,,,,,,,,413.41518859995995,413.4314787000185,416.41505409998354,418.4150002000388,baseline,10,01,False,2024-08-05_14h18.23.059,Gratings_vis_devJG_v0.6,2024.1.5,None,2024-08-05 14h18.41.474659 -0400,
79,0,79,0,418.43150359997526,,,,,,,,,418.4153271999676,418.43150359997526,421.41525930003263,423.41501580004115,baseline,10,01,False,2024-08-05_14h18.23.059,Gratings_vis_devJG_v0.6,2024.1.5,None,2024-08-05 14h18.41.474659 -0400,
80,0,80,0,423.4315647999756,,,,,,,,,423.415312099969,423.4315647999756,426.415176599985,428.41489260003436,baseline,10,01,False,2024-08-05_14h18.23.059,Gratings_vis_devJG_v0.6,2024.1.5,None,2024-08-05 14h18.41.474659 -0400,
81,0,81,0,428.43152510002255,,,,,,,,,428.41519269999117,428.43152510002255,431.41519820003305,433.4149077000329,baseline,10,01,False,2024-08-05_14h18.23.059,Gratings_vis_devJG_v0.6,2024.1.5,None,2024-08-05 14h18.41.474659 -0400,
82,0,82,0,433.43152590002865,,,,,,,,,433.41519610001706,433.43152590002865,436.415018800064,438.41484159999527,baseline,10,01,False,2024-08-05_14h18.23.059,Gratings_vis_devJG_v0.6,2024.1.5,None,2024-08-05 14h18.41.474659 -0400,
83,0,83,0,438.431728900061,,,,,,,,,438.41511020006146,438.431728900061,441.414960199967,443.4148035000544,baseline,10,01,False,2024-08-05_14h18.23.059,Gratings_vis_devJG_v0.6,2024.1.5,None,2024-08-05 14h18.41.474659 -0400,
84,0,84,0,443.43142060004175,,,,,,,,,443.4150775000453,443.43142060004175,446.41493760002777,448.4148167000385,baseline,10,01,False,2024-08-05_14h18.23.059,Gratings_vis_devJG_v0.6,2024.1.5,None,2024-08-05 14h18.41.474659 -0400,
85,0,85,0,448.4316266999813,,,,,,,,,448.4151088000508,448.4316266999813,451.41488870000467,453.4148015000392,baseline,10,01,False,2024-08-05_14h18.23.059,Gratings_vis_devJG_v0.6,2024.1.5,None,2024-08-05 14h18.41.474659 -0400,
86,0,86,0,453.4316060000565,,,,,,,,,453.41505349997897,453.4316060000565,456.4148556999862,458.4148591000121,baseline,10,01,False,2024-08-05_14h18.23.059,Gratings_vis_devJG_v0.6,2024.1.5,None,2024-08-05 14h18.41.474659 -0400,
87,0,87,0,458.4314512000419,,,,,,,,,458.4151270999573,458.4314512000419,461.414828900015,463.41474799998105,baseline,10,01,False,2024-08-05_14h18.23.059,Gratings_vis_devJG_v0.6,2024.1.5,None,2024-08-05 14h18.41.474659 -0400,
88,0,88,0,463.4313812999753,,,,,,,,,463.4150243999902,463.4313812999753,466.41504500003066,468.4147212000098,baseline,10,01,False,2024-08-05_14h18.23.059,Gratings_vis_devJG_v0.6,2024.1.5,None,2024-08-05 14h18.41.474659 -0400,
89,0,89,0,468.431378499954,,,,,,,,,468.41499349998776,468.431378499954,471.4149149999721,473.41462639998645,baseline,10,01,False,2024-08-05_14h18.23.059,Gratings_vis_devJG_v0.6,2024.1.5,None,2024-08-05 14h18.41.474659 -0400,
90,0,90,0,473.4312869999558,,,,,,,,,473.4149104000535,473.4312869999558,476.4147380000213,478.41467299999204,baseline,10,01,False,2024-08-05_14h18.23.059,Gratings_vis_devJG_v0.6,2024.1.5,None,2024-08-05 14h18.41.474659 -0400,
91,0,91,0,478.4312615999952,,,,,,,,,478.4149267000612,478.4312615999952,481.4147136999527,483.4147759999614,baseline,10,01,False,2024-08-05_14h18.23.059,Gratings_vis_devJG_v0.6,2024.1.5,None,2024-08-05 14h18.41.474659 -0400,
92,0,92,0,483.4313623000635,,,,,,,,,483.41503539995756,483.4313623000635,486.41472580004483,488.4146262999857,baseline,10,01,False,2024-08-05_14h18.23.059,Gratings_vis_devJG_v0.6,2024.1.5,None,2024-08-05 14h18.41.474659 -0400,
93,0,93,0,488.4314305000007,,,,,,,,,488.4149169999873,488.4314305000007,491.41502149996813,493.41493640001863,baseline,10,01,False,2024-08-05_14h18.23.059,Gratings_vis_devJG_v0.6,2024.1.5,None,2024-08-05 14h18.41.474659 -0400,
94,0,94,0,493.4312533000484,,,,,,,,,493.41521350003313,493.4312533000484,496.41473009996116,498.4145623999648,baseline,10,01,False,2024-08-05_14h18.23.059,Gratings_vis_devJG_v0.6,2024.1.5,None,2024-08-05 14h18.41.474659 -0400,
95,0,95,0,498.43119450006634,,,,,,,,,498.414837099961,498.43119450006634,501.41451769997366,503.4145067000063,baseline,10,01,False,2024-08-05_14h18.23.059,Gratings_vis_devJG_v0.6,2024.1.5,None,2024-08-05 14h18.41.474659 -0400,
96,0,96,0,503.43114580004476,,,,,,,,,503.4147691000253,503.43114580004476,506.41447109996807,508.41449260001536,baseline,10,01,False,2024-08-05_14h18.23.059,Gratings_vis_devJG_v0.6,2024.1.5,None,2024-08-05 14h18.41.474659 -0400,
97,0,97,0,508.43115930003114,,,,,,,,,508.414766300004,508.43115930003114,511.41460110002663,513.4144718999742,baseline,10,01,False,2024-08-05_14h18.23.059,Gratings_vis_devJG_v0.6,2024.1.5,None,2024-08-05 14h18.41.474659 -0400,
98,0,98,0,513.4311044999631,,,,,,,,,513.4147343999939,513.4311044999631,516.4145447000628,518.4144257999724,baseline,10,01,False,2024-08-05_14h18.23.059,Gratings_vis_devJG_v0.6,2024.1.5,None,2024-08-05 14h18.41.474659 -0400,
99,0,99,0,518.4311132000294,,,,,,,,,518.4146767000202,518.4311132000294,521.4145718000364,523.4144374000607,baseline,10,01,False,2024-08-05_14h18.23.059,Gratings_vis_devJG_v0.6,2024.1.5,None,2024-08-05 14h18.41.474659 -0400,
100,0,100,0,523.4312278999714,,,,,,,,,523.4147016999777,523.4312278999714,526.414580599987,528.414416900021,baseline,10,01,False,2024-08-05_14h18.23.059,Gratings_vis_devJG_v0.6,2024.1.5,None,2024-08-05 14h18.41.474659 -0400,
101,0,101,0,528.4310241000494,,,,,,,,,528.414696300053,528.4310241000494,531.4144869999727,533.414356400026,baseline,10,01,False,2024-08-05_14h18.23.059,Gratings_vis_devJG_v0.6,2024.1.5,None,2024-08-05 14h18.41.474659 -0400,
102,0,102,0,533.4309734000126,,,,,,,,,533.4146197000518,533.4309734000126,536.4144951000344,538.4144537999528,baseline,10,01,False,2024-08-05_14h18.23.059,Gratings_vis_devJG_v0.6,2024.1.5,None,2024-08-05 14h18.41.474659 -0400,
103,0,103,0,538.4310546000488,,,,,,,,,538.414762499975,538.4310546000488,541.4144210000522,543.4143038999755,baseline,10,01,False,2024-08-05_14h18.23.059,Gratings_vis_devJG_v0.6,2024.1.5,None,2024-08-05 14h18.41.474659 -0400,
104,0,104,0,543.4310038000112,,,,,,,,,543.4145722000394,543.4310038000112,546.4143969999859,548.4142784000142,baseline,10,01,False,2024-08-05_14h18.23.059,Gratings_vis_devJG_v0.6,2024.1.5,None,2024-08-05 14h18.41.474659 -0400,
105,0,105,0,548.4308953,,,,,,,,,548.4145640999777,548.4308953,551.41444339999,553.4143600000534,baseline,10,01,False,2024-08-05_14h18.23.059,Gratings_vis_devJG_v0.6,2024.1.5,None,2024-08-05 14h18.41.474659 -0400,
106,0,106,0,553.4309470000444,,,,,,,,,553.4146643000422,553.4309470000444,556.4143391000107,558.4142259999644,baseline,10,01,False,2024-08-05_14h18.23.059,Gratings_vis_devJG_v0.6,2024.1.5,None,2024-08-05 14h18.41.474659 -0400,
107,0,107,0,558.4308668000158,,,,,,,,,558.4144971000496,558.4308668000158,561.4143023999641,563.4142588999821,baseline,10,01,False,2024-08-05_14h18.23.059,Gratings_vis_devJG_v0.6,2024.1.5,None,2024-08-05 14h18.41.474659 -0400,
108,0,108,0,563.4308278999524,,,,,,,,,563.4145163999638,563.4308278999524,566.4143719000276,568.4142057000427,baseline,10,01,False,2024-08-05_14h18.23.059,Gratings_vis_devJG_v0.6,2024.1.5,None,2024-08-05 14h18.41.474659 -0400,
109,0,109,0,568.4310283999657,,,,,,,,,568.4144852999598,568.4310283999657,571.4143554000184,573.4142207000405,baseline,10,01,False,2024-08-05_14h18.23.059,Gratings_vis_devJG_v0.6,2024.1.5,None,2024-08-05 14h18.41.474659 -0400,
110,0,110,0,573.430801999988,,,,,,,,,573.4145107000368,573.430801999988,576.4143121000379,578.4142825000454,baseline,10,01,False,2024-08-05_14h18.23.059,Gratings_vis_devJG_v0.6,2024.1.5,None,2024-08-05 14h18.41.474659 -0400,
111,0,111,0,578.4307508000638,,,,,,,,,578.414735600003,578.4307508000638,581.4159433000023,583.414267300046,baseline,10,01,False,2024-08-05_14h18.23.059,Gratings_vis_devJG_v0.6,2024.1.5,None,2024-08-05 14h18.41.474659 -0400,
112,0,112,0,583.4309814999579,,,,,,,,,583.4145552000264,583.4309814999579,586.4156273000408,588.414139200002,baseline,10,01,False,2024-08-05_14h18.23.059,Gratings_vis_devJG_v0.6,2024.1.5,None,2024-08-05 14h18.41.474659 -0400,
113,0,113,0,588.4307156000286,,,,,,,,,588.4144018000225,588.4307156000286,591.4142216000473,593.4141020999523,baseline,10,01,False,2024-08-05_14h18.23.059,Gratings_vis_devJG_v0.6,2024.1.5,None,2024-08-05 14h18.41.474659 -0400,
114,0,114,0,593.4309611000353,,,,,,,,,593.414356400026,593.4309611000353,596.414262300008,598.4142332000192,baseline,10,01,False,2024-08-05_14h18.23.059,Gratings_vis_devJG_v0.6,2024.1.5,None,2024-08-05 14h18.41.474659 -0400,
115,0,115,0,598.4326456000563,,,,,,,,,598.4145003999583,598.4326456000563,601.4141874000197,603.4153430999722,baseline,10,01,False,2024-08-05_14h18.23.059,Gratings_vis_devJG_v0.6,2024.1.5,None,2024-08-05 14h18.41.474659 -0400,
116,0,116,0,603.430812500068,,,,,,,,,603.4156350999838,603.430812500068,606.414398199995,608.4142093999544,baseline,10,01,False,2024-08-05_14h18.23.059,Gratings_vis_devJG_v0.6,2024.1.5,None,2024-08-05 14h18.41.474659 -0400,
117,0,117,0,608.4308844000334,,,,,,,,,608.4145088000223,608.4308844000334,611.4141651999671,613.4139967999654,baseline,10,01,False,2024-08-05_14h18.23.059,Gratings_vis_devJG_v0.6,2024.1.5,None,2024-08-05 14h18.41.474659 -0400,
118,0,118,0,613.4323819000274,,,,,,,,,613.4142711999593,613.4323819000274,616.4140479000052,618.4142781000119,baseline,10,01,False,2024-08-05_14h18.23.059,Gratings_vis_devJG_v0.6,2024.1.5,None,2024-08-05 14h18.41.474659 -0400,
119,0,119,0,618.4309152000351,,,,,,,,,618.4147909999592,618.4309152000351,621.4142610999988,623.414137499989,baseline,10,01,False,2024-08-05_14h18.23.059,Gratings_vis_devJG_v0.6,2024.1.5,None,2024-08-05 14h18.41.474659 -0400,
