trials.thisRepN,trials.thisTrialN,trials.thisN,trials.thisIndex,thisRow.t,notes,nidaqTrigger.started,text_waiting_message.started,key_resp.started,nidaqTrigger.stopped,key_resp.keys,key_resp.rt,key_resp.duration,display_gratings.started,stim_grayScreen.started,stim_grating.started,stim_grayScreen.stopped,stim_grating.stopped,display_gratings.stopped,Protocol ID,Subject ID,Session ID,Wait for Trigger,date,expName,psychopyVersion,frameRate,expStart,
,,,,,,0.07506130001274869,0.07861660001799464,0.07861660001799464,8.732542600017041,space,8.639843699987978,None,,,,,,,FOV1,GS10,01,False,2024-08-02_17h09.05.462,Gratings_vis_devJG_v0.6,2024.1.5,None,2024-08-02 17h10.59.242001 -0400,
0,0,0,0,8.792209000035655,,,,,,,,,8.790411500027403,8.792209000035655,11.7967873000307,13.78027970000403,13.78027970000403,13.763785500021186,FOV1,GS10,01,False,2024-08-02_17h09.05.462,Gratings_vis_devJG_v0.6,2024.1.5,None,2024-08-02 17h10.59.242001 -0400,
1,0,1,0,13.78027970000403,,,,,,,,,13.763996299996506,13.797063500038348,16.797432400053367,18.78040740004508,18.78040740004508,18.763958199997433,FOV1,GS10,01,False,2024-08-02_17h09.05.462,Gratings_vis_devJG_v0.6,2024.1.5,None,2024-08-02 17h10.59.242001 -0400,
2,0,2,0,18.78040740004508,,,,,,,,,18.764143600012176,18.798096500046086,21.797203100053594,23.780348900007084,23.780348900007084,23.763911400048528,FOV1,GS10,01,False,2024-08-02_17h09.05.462,Gratings_vis_devJG_v0.6,2024.1.5,None,2024-08-02 17h10.59.242001 -0400,
3,0,3,0,23.780348900007084,,,,,,,,,23.764089000003878,23.79827510000905,26.797305600019172,28.780364600010216,28.780364600010216,28.765866500034463,FOV1,GS10,01,False,2024-08-02_17h09.05.462,Gratings_vis_devJG_v0.6,2024.1.5,None,2024-08-02 17h10.59.242001 -0400,
4,0,4,0,28.780364600010216,,,,,,,,,28.76605680002831,28.796990800008643,31.797182100010104,33.78033700003289,33.78033700003289,33.76620670000557,FOV1,GS10,01,False,2024-08-02_17h09.05.462,Gratings_vis_devJG_v0.6,2024.1.5,None,2024-08-02 17h10.59.242001 -0400,
5,0,5,0,33.78033700003289,,,,,,,,,33.766384900023695,33.79691790003562,36.797332900052425,38.78029270004481,38.78029270004481,38.76387580001028,FOV1,GS10,01,False,2024-08-02_17h09.05.462,Gratings_vis_devJG_v0.6,2024.1.5,None,2024-08-02 17h10.59.242001 -0400,
6,0,6,0,38.78029270004481,,,,,,,,,38.76405730005354,38.796895000035875,41.79714060004335,43.78035080002155,43.78035080002155,43.76419920002809,FOV1,GS10,01,False,2024-08-02_17h09.05.462,Gratings_vis_devJG_v0.6,2024.1.5,None,2024-08-02 17h10.59.242001 -0400,
7,0,7,0,43.78035080002155,,,,,,,,,43.7644209000282,43.796888900047634,46.79710460000206,48.780384200043045,48.780384200043045,48.76420740003232,FOV1,GS10,01,False,2024-08-02_17h09.05.462,Gratings_vis_devJG_v0.6,2024.1.5,None,2024-08-02 17h10.59.242001 -0400,
8,0,8,0,48.780384200043045,,,,,,,,,48.7643883000128,48.79713640001137,51.79720810003346,53.78041020000819,53.78041020000819,53.76399950002087,FOV1,GS10,01,False,2024-08-02_17h09.05.462,Gratings_vis_devJG_v0.6,2024.1.5,None,2024-08-02 17h10.59.242001 -0400,
9,0,9,0,53.78041020000819,,,,,,,,,53.764190800022334,53.796845000004396,56.79738740000175,58.78033910004888,58.78033910004888,58.76409980002791,FOV1,GS10,01,False,2024-08-02_17h09.05.462,Gratings_vis_devJG_v0.6,2024.1.5,None,2024-08-02 17h10.59.242001 -0400,
10,0,10,0,58.78033910004888,,,,,,,,,58.76428320002742,58.79679819999728,61.797691800049506,63.78017030004412,63.78017030004412,63.76371339999605,FOV1,GS10,01,False,2024-08-02_17h09.05.462,Gratings_vis_devJG_v0.6,2024.1.5,None,2024-08-02 17h10.59.242001 -0400,
11,0,11,0,63.78017030004412,,,,,,,,,63.763909100031015,63.796705100045074,66.79791840002872,68.78007900004741,68.78007900004741,68.76385889999801,FOV1,GS10,01,False,2024-08-02_17h09.05.462,Gratings_vis_devJG_v0.6,2024.1.5,None,2024-08-02 17h10.59.242001 -0400,
12,0,12,0,68.78007900004741,,,,,,,,,68.76404680003179,68.7967922000098,71.79838059999747,73.78016010002466,73.78016010002466,73.7640724000521,FOV1,GS10,01,False,2024-08-02_17h09.05.462,Gratings_vis_devJG_v0.6,2024.1.5,None,2024-08-02 17h10.59.242001 -0400,
13,0,13,0,73.78016010002466,,,,,,,,,73.764267200022,73.79687540000305,76.79853450000519,78.78075980005087,78.78075980005087,78.7648033000296,FOV1,GS10,01,False,2024-08-02_17h09.05.462,Gratings_vis_devJG_v0.6,2024.1.5,None,2024-08-02 17h10.59.242001 -0400,
14,0,14,0,78.78075980005087,,,,,,,,,78.76558290002868,78.79719520005165,81.79883700003847,83.78073720005341,83.78073720005341,83.76428540004417,FOV1,GS10,01,False,2024-08-02_17h09.05.462,Gratings_vis_devJG_v0.6,2024.1.5,None,2024-08-02 17h10.59.242001 -0400,
15,0,15,0,83.78073720005341,,,,,,,,,83.76447700004792,83.79740780004067,86.79924230003962,88.78006300004199,88.78006300004199,88.76413150003646,FOV1,GS10,01,False,2024-08-02_17h09.05.462,Gratings_vis_devJG_v0.6,2024.1.5,None,2024-08-02 17h10.59.242001 -0400,
16,0,16,0,88.78006300004199,,,,,,,,,88.76443760003895,88.79669790004846,91.79745220002951,93.78002900001593,93.78002900001593,93.76392520003719,FOV1,GS10,01,False,2024-08-02_17h09.05.462,Gratings_vis_devJG_v0.6,2024.1.5,None,2024-08-02 17h10.59.242001 -0400,
17,0,17,0,93.78002900001593,,,,,,,,,93.76412810001057,93.7969811000512,96.79680910002207,98.77984630002175,98.77984630002175,98.76381050003693,FOV1,GS10,01,False,2024-08-02_17h09.05.462,Gratings_vis_devJG_v0.6,2024.1.5,None,2024-08-02 17h10.59.242001 -0400,
18,0,18,0,98.77984630002175,,,,,,,,,98.76399620005395,98.79644990002271,101.7967009000131,103.77987160003977,103.77987160003977,103.76382900000317,FOV1,GS10,01,False,2024-08-02_17h09.05.462,Gratings_vis_devJG_v0.6,2024.1.5,None,2024-08-02 17h10.59.242001 -0400,
19,0,19,0,103.77987160003977,,,,,,,,,103.76400990004186,103.79650920000859,106.79670870001428,108.77975330001209,108.77975330001209,108.76339470001403,FOV1,GS10,01,False,2024-08-02_17h09.05.462,Gratings_vis_devJG_v0.6,2024.1.5,None,2024-08-02 17h10.59.242001 -0400,
20,0,20,0,108.77975330001209,,,,,,,,,108.76359610003419,108.79654300003313,111.79660380003043,113.77974450000329,113.77974450000329,113.76333000004524,FOV1,GS10,01,False,2024-08-02_17h09.05.462,Gratings_vis_devJG_v0.6,2024.1.5,None,2024-08-02 17h10.59.242001 -0400,
21,0,21,0,113.77974450000329,,,,,,,,,113.76351520000026,113.79661900002975,116.7965974000399,118.77971290005371,118.77971290005371,118.76371810003184,FOV1,GS10,01,False,2024-08-02_17h09.05.462,Gratings_vis_devJG_v0.6,2024.1.5,None,2024-08-02 17h10.59.242001 -0400,
22,0,22,0,118.77971290005371,,,,,,,,,118.76389540004311,118.79658930003643,121.79669980000472,123.77989130001515,123.77989130001515,123.76333310001064,FOV1,GS10,01,False,2024-08-02_17h09.05.462,Gratings_vis_devJG_v0.6,2024.1.5,None,2024-08-02 17h10.59.242001 -0400,
23,0,23,0,123.77989130001515,,,,,,,,,123.76351810002234,123.79658010002458,126.7967402000213,128.77976920001674,128.77976920001674,128.76328490005108,FOV1,GS10,01,False,2024-08-02_17h09.05.462,Gratings_vis_devJG_v0.6,2024.1.5,None,2024-08-02 17h10.59.242001 -0400,
24,0,24,0,128.77976920001674,,,,,,,,,128.76346139999805,128.79665230005048,131.79676720005227,133.77995190001093,133.77995190001093,133.76362620003056,FOV1,GS10,01,False,2024-08-02_17h09.05.462,Gratings_vis_devJG_v0.6,2024.1.5,None,2024-08-02 17h10.59.242001 -0400,
25,0,25,0,133.77995190001093,,,,,,,,,133.76382030005334,133.79641640000045,136.79653130000224,138.77977300004568,138.77977300004568,138.7633309000521,FOV1,GS10,01,False,2024-08-02_17h09.05.462,Gratings_vis_devJG_v0.6,2024.1.5,None,2024-08-02 17h10.59.242001 -0400,
26,0,26,0,138.77977300004568,,,,,,,,,138.76351650001016,138.79642140003853,141.79661360004684,143.77970860002097,143.77970860002097,143.76358640001854,FOV1,GS10,01,False,2024-08-02_17h09.05.462,Gratings_vis_devJG_v0.6,2024.1.5,None,2024-08-02 17h10.59.242001 -0400,
27,0,27,0,143.77970860002097,,,,,,,,,143.763765300042,143.79643110005418,146.7965304000536,148.77969310001936,148.77969310001936,148.76315230003092,FOV1,GS10,01,False,2024-08-02_17h09.05.462,Gratings_vis_devJG_v0.6,2024.1.5,None,2024-08-02 17h10.59.242001 -0400,
28,0,28,0,148.77969310001936,,,,,,,,,148.7633402000065,148.7964455000474,151.7964251000085,153.7796684000059,153.7796684000059,153.7632892000256,FOV1,GS10,01,False,2024-08-02_17h09.05.462,Gratings_vis_devJG_v0.6,2024.1.5,None,2024-08-02 17h10.59.242001 -0400,
29,0,29,0,153.7796684000059,,,,,,,,,153.76348780002445,153.79634530004114,156.79649970005266,158.77963050000835,158.77963050000835,158.76316680002492,FOV1,GS10,01,False,2024-08-02_17h09.05.462,Gratings_vis_devJG_v0.6,2024.1.5,None,2024-08-02 17h10.59.242001 -0400,
30,0,30,0,158.77963050000835,,,,,,,,,158.7633490000153,158.79631210002117,161.7963992000441,163.7795559000224,163.7795559000224,163.76305880001746,FOV1,GS10,01,False,2024-08-02_17h09.05.462,Gratings_vis_devJG_v0.6,2024.1.5,None,2024-08-02 17h10.59.242001 -0400,
31,0,31,0,163.7795559000224,,,,,,,,,163.763286100002,163.7963759000413,166.79637950001052,168.77960280003026,168.77960280003026,168.763113300025,FOV1,GS10,01,False,2024-08-02_17h09.05.462,Gratings_vis_devJG_v0.6,2024.1.5,None,2024-08-02 17h10.59.242001 -0400,
32,0,32,0,168.77960280003026,,,,,,,,,168.76328650000505,168.79622550000204,171.7963270000182,173.77954350004438,173.77954350004438,173.7630621000426,FOV1,GS10,01,False,2024-08-02_17h09.05.462,Gratings_vis_devJG_v0.6,2024.1.5,None,2024-08-02 17h10.59.242001 -0400,
33,0,33,0,173.77954350004438,,,,,,,,,173.76325370004633,173.79621440003393,176.7962450000341,178.7795393000124,178.7795393000124,178.76306399999885,FOV1,GS10,01,False,2024-08-02_17h09.05.462,Gratings_vis_devJG_v0.6,2024.1.5,None,2024-08-02 17h10.59.242001 -0400,
34,0,34,0,178.7795393000124,,,,,,,,,178.76324510003906,178.79639600001974,181.79631390003487,183.77949360001367,183.77949360001367,183.76308500004234,FOV1,GS10,01,False,2024-08-02_17h09.05.462,Gratings_vis_devJG_v0.6,2024.1.5,None,2024-08-02 17h10.59.242001 -0400,
35,0,35,0,183.77949360001367,,,,,,,,,183.7632851000526,183.79613510001218,186.7962701000506,188.7795559000224,188.7795559000224,188.76336820004508,FOV1,GS10,01,False,2024-08-02_17h09.05.462,Gratings_vis_devJG_v0.6,2024.1.5,None,2024-08-02 17h10.59.242001 -0400,
36,0,36,0,188.7795559000224,,,,,,,,,188.76358560001245,188.79613380000228,191.796323400049,193.77946190000512,193.77946190000512,193.7630207000184,FOV1,GS10,01,False,2024-08-02_17h09.05.462,Gratings_vis_devJG_v0.6,2024.1.5,None,2024-08-02 17h10.59.242001 -0400,
37,0,37,0,193.77946190000512,,,,,,,,,193.7632199000218,193.79613540001446,196.7964207000332,198.77948360005394,198.77948360005394,198.76293490000535,FOV1,GS10,01,False,2024-08-02_17h09.05.462,Gratings_vis_devJG_v0.6,2024.1.5,None,2024-08-02 17h10.59.242001 -0400,
38,0,38,0,198.77948360005394,,,,,,,,,198.76311920001172,198.7961917000357,201.7962075000396,203.77940739999758,203.77940739999758,203.76292720000492,FOV1,GS10,01,False,2024-08-02_17h09.05.462,Gratings_vis_devJG_v0.6,2024.1.5,None,2024-08-02 17h10.59.242001 -0400,
39,0,39,0,203.77940739999758,,,,,,,,,203.76310310000554,203.7961607000325,206.79605320002884,208.77935419999994,208.77935419999994,208.76289500005078,FOV1,GS10,01,False,2024-08-02_17h09.05.462,Gratings_vis_devJG_v0.6,2024.1.5,None,2024-08-02 17h10.59.242001 -0400,
40,0,40,0,208.77935419999994,,,,,,,,,208.76310860004742,208.79605180001818,211.79621610004688,213.77930940000806,213.77930940000806,213.7632582000224,FOV1,GS10,01,False,2024-08-02_17h09.05.462,Gratings_vis_devJG_v0.6,2024.1.5,None,2024-08-02 17h10.59.242001 -0400,
41,0,41,0,213.77930940000806,,,,,,,,,213.76343340001768,213.79598670004634,216.79617760004476,218.77928610000527,218.77928610000527,218.7629402000457,FOV1,GS10,01,False,2024-08-02_17h09.05.462,Gratings_vis_devJG_v0.6,2024.1.5,None,2024-08-02 17h10.59.242001 -0400,
42,0,42,0,218.77928610000527,,,,,,,,,218.7631394000491,218.79593190003652,221.79615770000964,223.77928700001212,223.77928700001212,223.76324460003525,FOV1,GS10,01,False,2024-08-02_17h09.05.462,Gratings_vis_devJG_v0.6,2024.1.5,None,2024-08-02 17h10.59.242001 -0400,
43,0,43,0,223.77928700001212,,,,,,,,,223.7634375000489,223.79595130000962,226.79610690003028,228.77928260003682,228.77928260003682,228.76278560003266,FOV1,GS10,01,False,2024-08-02_17h09.05.462,Gratings_vis_devJG_v0.6,2024.1.5,None,2024-08-02 17h10.59.242001 -0400,
44,0,44,0,228.77928260003682,,,,,,,,,228.76296740002,228.7959017000394,231.7961550000473,233.77917930000694,233.77917930000694,233.76276450004661,FOV1,GS10,01,False,2024-08-02_17h09.05.462,Gratings_vis_devJG_v0.6,2024.1.5,None,2024-08-02 17h10.59.242001 -0400,
45,0,45,0,233.77917930000694,,,,,,,,,233.76295510004275,233.79590020002797,236.79611260001548,238.7792115000193,238.7792115000193,238.76316210004734,FOV1,GS10,01,False,2024-08-02_17h09.05.462,Gratings_vis_devJG_v0.6,2024.1.5,None,2024-08-02 17h10.59.242001 -0400,
46,0,46,0,238.7792115000193,,,,,,,,,238.76336080004694,238.79582110000774,241.7960873999982,243.7791701000533,243.7791701000533,243.76276380004128,FOV1,GS10,01,False,2024-08-02_17h09.05.462,Gratings_vis_devJG_v0.6,2024.1.5,None,2024-08-02 17h10.59.242001 -0400,
47,0,47,0,243.7791701000533,,,,,,,,,243.76295140001457,243.79578880005283,246.79623860004358,248.77915170002962,248.77915170002962,248.76268790004542,FOV1,GS10,01,False,2024-08-02_17h09.05.462,Gratings_vis_devJG_v0.6,2024.1.5,None,2024-08-02 17h10.59.242001 -0400,
48,0,48,0,248.77915170002962,,,,,,,,,248.76287950004917,248.79579540004488,251.79603170003975,253.77909900003579,253.77909900003579,253.76274760003434,FOV1,GS10,01,False,2024-08-02_17h09.05.462,Gratings_vis_devJG_v0.6,2024.1.5,None,2024-08-02 17h10.59.242001 -0400,
49,0,49,0,253.77909900003579,,,,,,,,,253.7629480000469,253.79577430000063,256.7960390000371,258.77928920002887,258.77928920002887,258.76307929999894,FOV1,GS10,01,False,2024-08-02_17h09.05.462,Gratings_vis_devJG_v0.6,2024.1.5,None,2024-08-02 17h10.59.242001 -0400,
50,0,50,0,258.77928920002887,,,,,,,,,258.7632646000129,258.7957839000155,261.79600710002705,263.77911930001574,263.77911930001574,263.763076000032,FOV1,GS10,01,False,2024-08-02_17h09.05.462,Gratings_vis_devJG_v0.6,2024.1.5,None,2024-08-02 17h10.59.242001 -0400,
51,0,51,0,263.77911930001574,,,,,,,,,263.7632621000521,263.79579420003574,266.7959390000324,268.7790527000325,268.7790527000325,268.7625963000464,FOV1,GS10,01,False,2024-08-02_17h09.05.462,Gratings_vis_devJG_v0.6,2024.1.5,None,2024-08-02 17h10.59.242001 -0400,
52,0,52,0,268.7790527000325,,,,,,,,,268.76277470000787,268.79573110002093,271.79588190000504,273.77907430002233,273.77907430002233,273.76311910001095,FOV1,GS10,01,False,2024-08-02_17h09.05.462,Gratings_vis_devJG_v0.6,2024.1.5,None,2024-08-02 17h10.59.242001 -0400,
53,0,53,0,273.77907430002233,,,,,,,,,273.76332170004025,273.7957527000108,276.7959959,278.7791256000055,278.7791256000055,278.7635358000407,FOV1,GS10,01,False,2024-08-02_17h09.05.462,Gratings_vis_devJG_v0.6,2024.1.5,None,2024-08-02 17h10.59.242001 -0400,
54,0,54,0,278.7791256000055,,,,,,,,,278.76373460004106,278.79564540000865,281.79588190000504,283.77898110001115,283.77898110001115,283.76262990001123,FOV1,GS10,01,False,2024-08-02_17h09.05.462,Gratings_vis_devJG_v0.6,2024.1.5,None,2024-08-02 17h10.59.242001 -0400,
55,0,55,0,283.77898110001115,,,,,,,,,283.762809100037,283.7956644000369,286.79585160000715,288.7789098000503,288.7789098000503,288.7628900000127,FOV1,GS10,01,False,2024-08-02_17h09.05.462,Gratings_vis_devJG_v0.6,2024.1.5,None,2024-08-02 17h10.59.242001 -0400,
56,0,56,0,288.7789098000503,,,,,,,,,288.763071399997,288.7956319000223,291.79587520001223,293.7791970000253,293.7791970000253,293.7625625000219,FOV1,GS10,01,False,2024-08-02_17h09.05.462,Gratings_vis_devJG_v0.6,2024.1.5,None,2024-08-02 17h10.59.242001 -0400,
57,0,57,0,293.7791970000253,,,,,,,,,293.76274860004196,293.7955923000118,296.79584360000445,298.77903240005253,298.77903240005253,298.76254090003204,FOV1,GS10,01,False,2024-08-02_17h09.05.462,Gratings_vis_devJG_v0.6,2024.1.5,None,2024-08-02 17h10.59.242001 -0400,
58,0,58,0,298.77903240005253,,,,,,,,,298.76272769999923,298.7955568000325,301.7977606000495,303.7795572000323,303.7795572000323,303.7631141000311,FOV1,GS10,01,False,2024-08-02_17h09.05.462,Gratings_vis_devJG_v0.6,2024.1.5,None,2024-08-02 17h10.59.242001 -0400,
59,0,59,0,303.7795572000323,,,,,,,,,303.76330380002037,303.7963672000333,306.7974491000059,308.7887336999993,308.7887336999993,308.7632814000244,FOV1,GS10,01,False,2024-08-02_17h09.05.462,Gratings_vis_devJG_v0.6,2024.1.5,None,2024-08-02 17h10.59.242001 -0400,
