trials.thisRepN,trials.thisTrialN,trials.thisN,trials.thisIndex,thisRow.t,notes,nidaqTrigger.started,text_waiting_message.started,key_resp.started,nidaqTrigger.stopped,key_resp.keys,key_resp.rt,key_resp.duration,display_gratings.started,stim_grayScreen.started,stim_grating.started,stim_grayScreen.stopped,stim_grating.stopped,display_gratings.stopped,Protocol ID,Subject ID,Session ID,Wait for Trigger,date,expName,psychopyVersion,frameRate,expStart,
,,,,,,0.006670100032351911,0.013571500079706311,0.013571500079706311,3.348671300103888,space,3.3168059999588877,None,,,,,,,sal,GS10,01,False,2024-08-07_16h22.34.056,Gratings_vis_devJG_v0.6,2024.1.5,None,2024-08-07 16h22.44.502279 -0400,
0,0,0,0,3.3994981000432745,,,,,,,,,3.397994800005108,3.3994981000432745,6.396844500093721,8.396951700095087,8.396951700095087,8.38069080002606,sal,GS10,01,False,2024-08-07_16h22.34.056,Gratings_vis_devJG_v0.6,2024.1.5,None,2024-08-07 16h22.44.502279 -0400,
1,0,1,0,8.396951700095087,,,,,,,,,8.38095520006027,8.396951700095087,11.397239300073124,13.397076499997638,13.397076499997638,13.380906000034884,sal,GS10,01,False,2024-08-07_16h22.34.056,Gratings_vis_devJG_v0.6,2024.1.5,None,2024-08-07 16h22.44.502279 -0400,
2,0,2,0,13.397076499997638,,,,,,,,,13.381452900008298,13.397076499997638,16.39734720007982,18.397261300007813,18.397261300007813,18.38053010008298,sal,GS10,01,False,2024-08-07_16h22.34.056,Gratings_vis_devJG_v0.6,2024.1.5,None,2024-08-07 16h22.44.502279 -0400,
3,0,3,0,18.397261300007813,,,,,,,,,18.38078340003267,18.397261300007813,21.39724760001991,23.39740110002458,23.39740110002458,23.380703800008632,sal,GS10,01,False,2024-08-07_16h22.34.056,Gratings_vis_devJG_v0.6,2024.1.5,None,2024-08-07 16h22.44.502279 -0400,
4,0,4,0,23.39740110002458,,,,,,,,,23.380965500022285,23.39740110002458,26.39721650001593,28.397570300032385,28.397570300032385,28.38054959999863,sal,GS10,01,False,2024-08-07_16h22.34.056,Gratings_vis_devJG_v0.6,2024.1.5,None,2024-08-07 16h22.44.502279 -0400,
5,0,5,0,28.397570300032385,,,,,,,,,28.380813000025228,28.397570300032385,31.39769840007648,33.39745530008804,33.39745530008804,33.380954900057986,sal,GS10,01,False,2024-08-07_16h22.34.056,Gratings_vis_devJG_v0.6,2024.1.5,None,2024-08-07 16h22.44.502279 -0400,
6,0,6,0,33.39745530008804,,,,,,,,,33.38121480005793,33.39745530008804,36.397522900020704,38.39731190004386,38.39731190004386,38.38130370003637,sal,GS10,01,False,2024-08-07_16h22.34.056,Gratings_vis_devJG_v0.6,2024.1.5,None,2024-08-07 16h22.44.502279 -0400,
7,0,7,0,38.39731190004386,,,,,,,,,38.381557600107044,38.39731190004386,41.397121200105175,43.397323700017296,43.397323700017296,43.38030970003456,sal,GS10,01,False,2024-08-07_16h22.34.056,Gratings_vis_devJG_v0.6,2024.1.5,None,2024-08-07 16h22.44.502279 -0400,
8,0,8,0,43.397323700017296,,,,,,,,,43.3805950001115,43.397323700017296,46.397122299997136,48.396912900032476,48.396912900032476,48.380532700102776,sal,GS10,01,False,2024-08-07_16h22.34.056,Gratings_vis_devJG_v0.6,2024.1.5,None,2024-08-07 16h22.44.502279 -0400,
9,0,9,0,48.396912900032476,,,,,,,,,48.3807867000578,48.396912900032476,51.39712950005196,53.397455600090325,53.397455600090325,53.38158210006077,sal,GS10,01,False,2024-08-07_16h22.34.056,Gratings_vis_devJG_v0.6,2024.1.5,None,2024-08-07 16h22.44.502279 -0400,
10,0,10,0,53.397455600090325,,,,,,,,,53.3818304000888,53.397455600090325,56.3973832000047,58.39703270001337,58.39703270001337,58.38042130006943,sal,GS10,01,False,2024-08-07_16h22.34.056,Gratings_vis_devJG_v0.6,2024.1.5,None,2024-08-07 16h22.44.502279 -0400,
11,0,11,0,58.39703270001337,,,,,,,,,58.38067330000922,58.39703270001337,61.39703030011151,63.397370900027454,63.397370900027454,63.381065600086,sal,GS10,01,False,2024-08-07_16h22.34.056,Gratings_vis_devJG_v0.6,2024.1.5,None,2024-08-07 16h22.44.502279 -0400,
12,0,12,0,63.397370900027454,,,,,,,,,63.381345300003886,63.397370900027454,66.39718910004012,68.39683760004118,68.39683760004118,68.38044180010911,sal,GS10,01,False,2024-08-07_16h22.34.056,Gratings_vis_devJG_v0.6,2024.1.5,None,2024-08-07 16h22.44.502279 -0400,
13,0,13,0,68.39683760004118,,,,,,,,,68.38071180006955,68.39683760004118,71.39694510004483,73.397156800027,73.397156800027,73.38039790000767,sal,GS10,01,False,2024-08-07_16h22.34.056,Gratings_vis_devJG_v0.6,2024.1.5,None,2024-08-07 16h22.44.502279 -0400,
14,0,14,0,73.397156800027,,,,,,,,,73.38065600011032,73.397156800027,76.39696980000008,78.39677270001266,78.39677270001266,78.38040910009295,sal,GS10,01,False,2024-08-07_16h22.34.056,Gratings_vis_devJG_v0.6,2024.1.5,None,2024-08-07 16h22.44.502279 -0400,
15,0,15,0,78.39677270001266,,,,,,,,,78.38066670007538,78.39677270001266,81.39693800010718,83.39672910002992,83.39672910002992,83.3802951000398,sal,GS10,01,False,2024-08-07_16h22.34.056,Gratings_vis_devJG_v0.6,2024.1.5,None,2024-08-07 16h22.44.502279 -0400,
16,0,16,0,83.39672910002992,,,,,,,,,83.38054110005032,83.39672910002992,86.39689410000574,88.3966880000662,88.3966880000662,88.38028250006028,sal,GS10,01,False,2024-08-07_16h22.34.056,Gratings_vis_devJG_v0.6,2024.1.5,None,2024-08-07 16h22.44.502279 -0400,
17,0,17,0,88.3966880000662,,,,,,,,,88.38056700001471,88.3966880000662,91.39682460005861,93.39667710009962,93.39667710009962,93.38049300003331,sal,GS10,01,False,2024-08-07_16h22.34.056,Gratings_vis_devJG_v0.6,2024.1.5,None,2024-08-07 16h22.44.502279 -0400,
18,0,18,0,93.39667710009962,,,,,,,,,93.38075830007438,93.39667710009962,96.39705270004924,98.39669770002365,98.39669770002365,98.3802951000398,sal,GS10,01,False,2024-08-07_16h22.34.056,Gratings_vis_devJG_v0.6,2024.1.5,None,2024-08-07 16h22.44.502279 -0400,
19,0,19,0,98.39669770002365,,,,,,,,,98.38055090000853,98.39669770002365,101.39681500010192,103.39670940011274,103.39670940011274,103.38103130005766,sal,GS10,01,False,2024-08-07_16h22.34.056,Gratings_vis_devJG_v0.6,2024.1.5,None,2024-08-07 16h22.44.502279 -0400,
20,0,20,0,103.39670940011274,,,,,,,,,103.38128910004161,103.39670940011274,106.3969418000197,108.39668590005022,108.39668590005022,108.38024020008743,sal,GS10,01,False,2024-08-07_16h22.34.056,Gratings_vis_devJG_v0.6,2024.1.5,None,2024-08-07 16h22.44.502279 -0400,
21,0,21,0,108.39668590005022,,,,,,,,,108.38048920000438,108.39668590005022,111.39679340005387,113.39666840003338,113.39666840003338,113.38073940004688,sal,GS10,01,False,2024-08-07_16h22.34.056,Gratings_vis_devJG_v0.6,2024.1.5,None,2024-08-07 16h22.44.502279 -0400,
22,0,22,0,113.39666840003338,,,,,,,,,113.3810043000849,113.39666840003338,116.3967509000795,118.39656170003582,118.39656170003582,118.38018090010155,sal,GS10,01,False,2024-08-07_16h22.34.056,Gratings_vis_devJG_v0.6,2024.1.5,None,2024-08-07 16h22.44.502279 -0400,
23,0,23,0,118.39656170003582,,,,,,,,,118.38042719999794,118.39656170003582,121.39676570007578,123.39658470009454,123.39658470009454,123.38022750010714,sal,GS10,01,False,2024-08-07_16h22.34.056,Gratings_vis_devJG_v0.6,2024.1.5,None,2024-08-07 16h22.44.502279 -0400,
24,0,24,0,123.39658470009454,,,,,,,,,123.38048550009262,123.39658470009454,126.39665390003938,128.39655600010883,128.39655600010883,128.38059140008409,sal,GS10,01,False,2024-08-07_16h22.34.056,Gratings_vis_devJG_v0.6,2024.1.5,None,2024-08-07 16h22.44.502279 -0400,
25,0,25,0,128.39655600010883,,,,,,,,,128.38084009999875,128.39655600010883,131.39663230010774,133.39652050007135,133.39652050007135,133.38022540009115,sal,GS10,01,False,2024-08-07_16h22.34.056,Gratings_vis_devJG_v0.6,2024.1.5,None,2024-08-07 16h22.44.502279 -0400,
26,0,26,0,133.39652050007135,,,,,,,,,133.38048570009414,133.41319300001487,136.3966215000255,138.39647230005357,138.39647230005357,138.38006800005678,sal,GS10,01,False,2024-08-07_16h22.34.056,Gratings_vis_devJG_v0.6,2024.1.5,None,2024-08-07 16h22.44.502279 -0400,
27,0,27,0,138.39647230005357,,,,,,,,,138.38031770009547,138.41309270006604,141.3965581000084,143.39643630001228,143.39643630001228,143.38158929999918,sal,GS10,01,False,2024-08-07_16h22.34.056,Gratings_vis_devJG_v0.6,2024.1.5,None,2024-08-07 16h22.44.502279 -0400,
28,0,28,0,143.39643630001228,,,,,,,,,143.3818428000668,143.39643630001228,146.39656710007694,148.39642380003352,148.39642380003352,148.3806599000236,sal,GS10,01,False,2024-08-07_16h22.34.056,Gratings_vis_devJG_v0.6,2024.1.5,None,2024-08-07 16h22.44.502279 -0400,
29,0,29,0,148.39642380003352,,,,,,,,,148.3809140000958,148.39642380003352,151.39657930005342,153.39634760003537,153.39634760003537,153.37997570005246,sal,GS10,01,False,2024-08-07_16h22.34.056,Gratings_vis_devJG_v0.6,2024.1.5,None,2024-08-07 16h22.44.502279 -0400,
30,0,30,0,153.39634760003537,,,,,,,,,153.38023050001357,153.4130429000361,156.39812260004692,158.39641550008673,158.39641550008673,158.37996260006912,sal,GS10,01,False,2024-08-07_16h22.34.056,Gratings_vis_devJG_v0.6,2024.1.5,None,2024-08-07 16h22.44.502279 -0400,
31,0,31,0,158.39641550008673,,,,,,,,,158.38020940008573,158.41302330000326,161.39726330002304,163.39659680007026,163.39659680007026,163.380123800016,sal,GS10,01,False,2024-08-07_16h22.34.056,Gratings_vis_devJG_v0.6,2024.1.5,None,2024-08-07 16h22.44.502279 -0400,
32,0,32,0,163.39659680007026,,,,,,,,,163.38037800008897,163.41441120009404,166.39659500005655,168.39644360006787,168.39644360006787,168.37994370004162,sal,GS10,01,False,2024-08-07_16h22.34.056,Gratings_vis_devJG_v0.6,2024.1.5,None,2024-08-07 16h22.44.502279 -0400,
33,0,33,0,168.39644360006787,,,,,,,,,168.38020540005527,168.4130116000306,171.39655120007228,173.39637510001194,173.39637510001194,173.37986290000845,sal,GS10,01,False,2024-08-07_16h22.34.056,Gratings_vis_devJG_v0.6,2024.1.5,None,2024-08-07 16h22.44.502279 -0400,
34,0,34,0,173.39637510001194,,,,,,,,,173.38012070010882,173.412962900009,176.41375210008118,178.39686080010142,178.39686080010142,178.3799658000935,sal,GS10,01,False,2024-08-07_16h22.34.056,Gratings_vis_devJG_v0.6,2024.1.5,None,2024-08-07 16h22.44.502279 -0400,
35,0,35,0,178.39686080010142,,,,,,,,,178.38022690010257,178.41298950009514,181.41313790006097,183.39652330009267,183.39652330009267,183.38023750006687,sal,GS10,01,False,2024-08-07_16h22.34.056,Gratings_vis_devJG_v0.6,2024.1.5,None,2024-08-07 16h22.44.502279 -0400,
36,0,36,0,183.39652330009267,,,,,,,,,183.38050410000142,183.41294670000207,186.4130349000916,,,188.41379650007002,sal,GS10,01,False,2024-08-07_16h22.34.056,Gratings_vis_devJG_v0.6,2024.1.5,None,2024-08-07 16h22.44.502279 -0400,
37,0,37,0,188.42981370002963,,,,,,,,,188.41405480005778,188.42981370002963,191.4130289000459,,,193.41296900005545,sal,GS10,01,False,2024-08-07_16h22.34.056,Gratings_vis_devJG_v0.6,2024.1.5,None,2024-08-07 16h22.44.502279 -0400,
38,0,38,0,193.42952520004474,,,,,,,,,193.41326580010355,193.42952520004474,196.39787470002193,,,198.41287720005494,sal,GS10,01,False,2024-08-07_16h22.34.056,Gratings_vis_devJG_v0.6,2024.1.5,None,2024-08-07 16h22.44.502279 -0400,
39,0,39,0,198.43093260005116,,,,,,,,,198.41318810009398,198.43093260005116,201.41327120002825,,,203.41293880005833,sal,GS10,01,False,2024-08-07_16h22.34.056,Gratings_vis_devJG_v0.6,2024.1.5,None,2024-08-07 16h22.44.502279 -0400,
40,0,40,0,203.43097300000954,,,,,,,,,203.41322119999677,203.43097300000954,206.3962725000456,,,208.4127950000111,sal,GS10,01,False,2024-08-07_16h22.34.056,Gratings_vis_devJG_v0.6,2024.1.5,None,2024-08-07 16h22.44.502279 -0400,
41,0,41,0,208.43105560005642,,,,,,,,,208.41306829999667,208.43105560005642,211.39686540002003,,,213.398656400037,sal,GS10,01,False,2024-08-07_16h22.34.056,Gratings_vis_devJG_v0.6,2024.1.5,None,2024-08-07 16h22.44.502279 -0400,
42,0,42,0,213.41275270003825,,,,,,,,,213.3989260001108,213.41275270003825,216.3988492001081,,,218.39818220003508,sal,GS10,01,False,2024-08-07_16h22.34.056,Gratings_vis_devJG_v0.6,2024.1.5,None,2024-08-07 16h22.44.502279 -0400,
43,0,43,0,218.41272480005864,,,,,,,,,218.39844570006244,218.41272480005864,221.39744570001494,223.4126936000539,223.4126936000539,223.39650880009867,sal,GS10,01,False,2024-08-07_16h22.34.056,Gratings_vis_devJG_v0.6,2024.1.5,None,2024-08-07 16h22.44.502279 -0400,
44,0,44,0,223.4126936000539,,,,,,,,,223.39676550007425,223.4126936000539,226.39773770002648,228.41269770008512,228.41269770008512,228.39640920003876,sal,GS10,01,False,2024-08-07_16h22.34.056,Gratings_vis_devJG_v0.6,2024.1.5,None,2024-08-07 16h22.44.502279 -0400,
45,0,45,0,228.41269770008512,,,,,,,,,228.3966632001102,228.41269770008512,231.39823890000116,233.41263860010076,233.41263860010076,233.39630470005795,sal,GS10,01,False,2024-08-07_16h22.34.056,Gratings_vis_devJG_v0.6,2024.1.5,None,2024-08-07 16h22.44.502279 -0400,
46,0,46,0,233.41263860010076,,,,,,,,,233.39656180003658,233.41263860010076,236.39831340010278,238.41274400008842,238.41274400008842,238.3962857000297,sal,GS10,01,False,2024-08-07_16h22.34.056,Gratings_vis_devJG_v0.6,2024.1.5,None,2024-08-07 16h22.44.502279 -0400,
47,0,47,0,238.41274400008842,,,,,,,,,238.39653680007905,238.41274400008842,241.39859580004122,243.41258920007385,243.41258920007385,243.3965320000425,sal,GS10,01,False,2024-08-07_16h22.34.056,Gratings_vis_devJG_v0.6,2024.1.5,None,2024-08-07 16h22.44.502279 -0400,
48,0,48,0,243.41258920007385,,,,,,,,,243.39678860001732,243.41258920007385,246.39889940002467,248.41281840007287,248.41281840007287,248.39718640001956,sal,GS10,01,False,2024-08-07_16h22.34.056,Gratings_vis_devJG_v0.6,2024.1.5,None,2024-08-07 16h22.44.502279 -0400,
49,0,49,0,248.41281840007287,,,,,,,,,248.39744650002103,248.41281840007287,251.3982093000086,,,253.39794870000333,sal,GS10,01,False,2024-08-07_16h22.34.056,Gratings_vis_devJG_v0.6,2024.1.5,None,2024-08-07 16h22.44.502279 -0400,
50,0,50,0,253.4135407001013,,,,,,,,,253.39822890004143,253.4135407001013,256.39848990004975,258.41346190008335,258.41346190008335,258.39757250004914,sal,GS10,01,False,2024-08-07_16h22.34.056,Gratings_vis_devJG_v0.6,2024.1.5,None,2024-08-07 16h22.44.502279 -0400,
51,0,51,0,258.41346190008335,,,,,,,,,258.3978275000118,258.41346190008335,261.39879000000656,263.4140239000553,263.4140239000553,263.39765630010515,sal,GS10,01,False,2024-08-07_16h22.34.056,Gratings_vis_devJG_v0.6,2024.1.5,None,2024-08-07 16h22.44.502279 -0400,
52,0,52,0,263.4140239000553,,,,,,,,,263.3979017001111,263.4140239000553,266.39910670008976,,,268.3976885000011,sal,GS10,01,False,2024-08-07_16h22.34.056,Gratings_vis_devJG_v0.6,2024.1.5,None,2024-08-07 16h22.44.502279 -0400,
53,0,53,0,268.4138899000827,,,,,,,,,268.39794090006035,268.4138899000827,271.4160544000333,273.4123260000488,273.4123260000488,273.39598990010563,sal,GS10,01,False,2024-08-07_16h22.34.056,Gratings_vis_devJG_v0.6,2024.1.5,None,2024-08-07 16h22.44.502279 -0400,
54,0,54,0,273.4123260000488,,,,,,,,,273.3962386000203,273.4123260000488,276.41293640004005,278.4123035001103,278.4123035001103,278.39605530002154,sal,GS10,01,False,2024-08-07_16h22.34.056,Gratings_vis_devJG_v0.6,2024.1.5,None,2024-08-07 16h22.44.502279 -0400,
55,0,55,0,278.4123035001103,,,,,,,,,278.3963105001021,278.4123035001103,281.4124506000662,283.41223940008786,283.41223940008786,283.39625550003257,sal,GS10,01,False,2024-08-07_16h22.34.056,Gratings_vis_devJG_v0.6,2024.1.5,None,2024-08-07 16h22.44.502279 -0400,
56,0,56,0,283.41223940008786,,,,,,,,,283.39651400002185,283.41223940008786,286.4130677001085,288.41337390011176,288.41337390011176,288.39631630002987,sal,GS10,01,False,2024-08-07_16h22.34.056,Gratings_vis_devJG_v0.6,2024.1.5,None,2024-08-07 16h22.44.502279 -0400,
57,0,57,0,288.41337390011176,,,,,,,,,288.3965807000641,288.41337390011176,291.41249090002384,293.4122113001067,293.4122113001067,293.39579219999723,sal,GS10,01,False,2024-08-07_16h22.34.056,Gratings_vis_devJG_v0.6,2024.1.5,None,2024-08-07 16h22.44.502279 -0400,
58,0,58,0,293.4122113001067,,,,,,,,,293.3960476000793,293.4122113001067,296.4128367000958,298.4122525000712,298.4122525000712,298.3958321000682,sal,GS10,01,False,2024-08-07_16h22.34.056,Gratings_vis_devJG_v0.6,2024.1.5,None,2024-08-07 16h22.44.502279 -0400,
59,0,59,0,298.4122525000712,,,,,,,,,298.3960743000498,298.4122525000712,301.4123710000422,303.41224020009395,303.41224020009395,303.3963580999989,sal,GS10,01,False,2024-08-07_16h22.34.056,Gratings_vis_devJG_v0.6,2024.1.5,None,2024-08-07 16h22.44.502279 -0400,
60,0,60,0,303.41224020009395,,,,,,,,,303.3966454000911,303.41224020009395,306.4128315000562,308.41240110003855,308.41240110003855,308.3958655000897,sal,GS10,01,False,2024-08-07_16h22.34.056,Gratings_vis_devJG_v0.6,2024.1.5,None,2024-08-07 16h22.44.502279 -0400,
61,0,61,0,308.41240110003855,,,,,,,,,308.3961268001003,308.41240110003855,311.41257860010955,313.4124126000097,313.4124126000097,313.3960011000745,sal,GS10,01,False,2024-08-07_16h22.34.056,Gratings_vis_devJG_v0.6,2024.1.5,None,2024-08-07 16h22.44.502279 -0400,
62,0,62,0,313.4124126000097,,,,,,,,,313.3962645001011,313.4124126000097,316.4126912000356,318.4121963001089,318.4121963001089,318.39578930009156,sal,GS10,01,False,2024-08-07_16h22.34.056,Gratings_vis_devJG_v0.6,2024.1.5,None,2024-08-07 16h22.44.502279 -0400,
63,0,63,0,318.4121963001089,,,,,,,,,318.3960454000626,318.4121963001089,321.41235950007103,323.4122106001014,323.4122106001014,323.3958337000804,sal,GS10,01,False,2024-08-07_16h22.34.056,Gratings_vis_devJG_v0.6,2024.1.5,None,2024-08-07 16h22.44.502279 -0400,
64,0,64,0,323.4122106001014,,,,,,,,,323.396090800059,323.4122106001014,326.4126788000576,328.41227000008803,328.41227000008803,328.3958308000583,sal,GS10,01,False,2024-08-07_16h22.34.056,Gratings_vis_devJG_v0.6,2024.1.5,None,2024-08-07 16h22.44.502279 -0400,
65,0,65,0,328.41227000008803,,,,,,,,,328.396086200024,328.41227000008803,331.41250770003535,333.4120991000673,333.4120991000673,333.3962777000852,sal,GS10,01,False,2024-08-07_16h22.34.056,Gratings_vis_devJG_v0.6,2024.1.5,None,2024-08-07 16h22.44.502279 -0400,
66,0,66,0,333.4120991000673,,,,,,,,,333.3965278000105,333.4120991000673,336.41252580005676,338.41208080004435,338.41208080004435,338.39577950001694,sal,GS10,01,False,2024-08-07_16h22.34.056,Gratings_vis_devJG_v0.6,2024.1.5,None,2024-08-07 16h22.44.502279 -0400,
67,0,67,0,338.41208080004435,,,,,,,,,338.3960459000664,338.41208080004435,341.412261200021,343.41210509999655,343.41210509999655,343.39605660003144,sal,GS10,01,False,2024-08-07_16h22.34.056,Gratings_vis_devJG_v0.6,2024.1.5,None,2024-08-07 16h22.44.502279 -0400,
68,0,68,0,343.41210509999655,,,,,,,,,343.3963084000861,343.41210509999655,346.4122080000816,348.412048600032,348.412048600032,348.39563440007623,sal,GS10,01,False,2024-08-07_16h22.34.056,Gratings_vis_devJG_v0.6,2024.1.5,None,2024-08-07 16h22.44.502279 -0400,
69,0,69,0,348.412048600032,,,,,,,,,348.39589480008,348.412048600032,351.41218100010883,353.4120074000675,353.4120074000675,353.39568300009705,sal,GS10,01,False,2024-08-07_16h22.34.056,Gratings_vis_devJG_v0.6,2024.1.5,None,2024-08-07 16h22.44.502279 -0400,
70,0,70,0,353.4120074000675,,,,,,,,,353.3959348000353,353.4120074000675,356.4121487000957,358.41218350001145,358.41218350001145,358.39565090008546,sal,GS10,01,False,2024-08-07_16h22.34.056,Gratings_vis_devJG_v0.6,2024.1.5,None,2024-08-07 16h22.44.502279 -0400,
71,0,71,0,358.41218350001145,,,,,,,,,358.395909300074,358.41218350001145,361.41232110001147,363.41198020009324,363.41198020009324,363.39562920003664,sal,GS10,01,False,2024-08-07_16h22.34.056,Gratings_vis_devJG_v0.6,2024.1.5,None,2024-08-07 16h22.44.502279 -0400,
72,0,72,0,363.41198020009324,,,,,,,,,363.39589180005714,363.41198020009324,366.412279900047,368.4121109000407,368.4121109000407,368.3955569000682,sal,GS10,01,False,2024-08-07_16h22.34.056,Gratings_vis_devJG_v0.6,2024.1.5,None,2024-08-07 16h22.44.502279 -0400,
73,0,73,0,368.4121109000407,,,,,,,,,368.3958042000886,368.4121109000407,371.4121704000281,373.4119317000732,373.4119317000732,373.39589640009217,sal,GS10,01,False,2024-08-07_16h22.34.056,Gratings_vis_devJG_v0.6,2024.1.5,None,2024-08-07 16h22.44.502279 -0400,
74,0,74,0,373.4119317000732,,,,,,,,,373.39614970004186,373.4119317000732,376.4124859001022,378.4119648000924,378.4119648000924,378.39554820000194,sal,GS10,01,False,2024-08-07_16h22.34.056,Gratings_vis_devJG_v0.6,2024.1.5,None,2024-08-07 16h22.44.502279 -0400,
75,0,75,0,378.4119648000924,,,,,,,,,378.395794400014,378.4119648000924,381.4120331000304,383.4118770000059,383.4118770000059,383.3958047000924,sal,GS10,01,False,2024-08-07_16h22.34.056,Gratings_vis_devJG_v0.6,2024.1.5,None,2024-08-07 16h22.44.502279 -0400,
76,0,76,0,383.4118770000059,,,,,,,,,383.396078000078,383.4118770000059,386.4119989000028,388.4118281000992,388.4118281000992,388.39554020005744,sal,GS10,01,False,2024-08-07_16h22.34.056,Gratings_vis_devJG_v0.6,2024.1.5,None,2024-08-07 16h22.44.502279 -0400,
77,0,77,0,388.4118281000992,,,,,,,,,388.3958396000089,388.4118281000992,391.4121216000058,393.41175970004406,393.41175970004406,393.3957639000146,sal,GS10,01,False,2024-08-07_16h22.34.056,Gratings_vis_devJG_v0.6,2024.1.5,None,2024-08-07 16h22.44.502279 -0400,
78,0,78,0,393.41175970004406,,,,,,,,,393.3960124000441,393.41175970004406,396.4118973000441,398.4117707000114,398.4117707000114,398.3955074000405,sal,GS10,01,False,2024-08-07_16h22.34.056,Gratings_vis_devJG_v0.6,2024.1.5,None,2024-08-07 16h22.44.502279 -0400,
79,0,79,0,398.4117707000114,,,,,,,,,398.3957626000047,398.4117707000114,401.4118634000188,403.41173020005226,403.41173020005226,403.39539320010226,sal,GS10,01,False,2024-08-07_16h22.34.056,Gratings_vis_devJG_v0.6,2024.1.5,None,2024-08-07 16h22.44.502279 -0400,
80,0,80,0,403.41173020005226,,,,,,,,,403.39565630001016,403.41173020005226,406.4119299000595,408.41172270011157,408.41172270011157,408.3960736000445,sal,GS10,01,False,2024-08-07_16h22.34.056,Gratings_vis_devJG_v0.6,2024.1.5,None,2024-08-07 16h22.44.502279 -0400,
81,0,81,0,408.41172270011157,,,,,,,,,408.3963392000878,408.41172270011157,411.41182080004364,413.4117161000613,413.4117161000613,413.39539680001326,sal,GS10,01,False,2024-08-07_16h22.34.056,Gratings_vis_devJG_v0.6,2024.1.5,None,2024-08-07 16h22.44.502279 -0400,
82,0,82,0,413.4117161000613,,,,,,,,,413.3956681001,413.4117161000613,416.4121418000432,418.41166480001993,418.41166480001993,418.3952311000321,sal,GS10,01,False,2024-08-07_16h22.34.056,Gratings_vis_devJG_v0.6,2024.1.5,None,2024-08-07 16h22.44.502279 -0400,
83,0,83,0,418.41166480001993,,,,,,,,,418.395496900077,418.41166480001993,421.4119288000511,423.41164180007763,423.41164180007763,423.39563410007395,sal,GS10,01,False,2024-08-07_16h22.34.056,Gratings_vis_devJG_v0.6,2024.1.5,None,2024-08-07 16h22.44.502279 -0400,
84,0,84,0,423.41164180007763,,,,,,,,,423.39589460007846,423.41164180007763,426.41212120000273,428.4116530000465,428.4116530000465,428.39518260001205,sal,GS10,01,False,2024-08-07_16h22.34.056,Gratings_vis_devJG_v0.6,2024.1.5,None,2024-08-07 16h22.44.502279 -0400,
85,0,85,0,428.4116530000465,,,,,,,,,428.3954361000797,428.4116530000465,431.41187609999906,433.4115955000743,433.4115955000743,433.3952958000591,sal,GS10,01,False,2024-08-07_16h22.34.056,Gratings_vis_devJG_v0.6,2024.1.5,None,2024-08-07 16h22.44.502279 -0400,
86,0,86,0,433.4115955000743,,,,,,,,,433.3955561000621,433.4115955000743,436.41171550005674,438.4116467999993,438.4116467999993,438.3952114999993,sal,GS10,01,False,2024-08-07_16h22.34.056,Gratings_vis_devJG_v0.6,2024.1.5,None,2024-08-07 16h22.44.502279 -0400,
87,0,87,0,438.4116467999993,,,,,,,,,438.3954550001072,438.4116467999993,441.4117288000416,443.41154000000097,443.41154000000097,443.3951437000651,sal,GS10,01,False,2024-08-07_16h22.34.056,Gratings_vis_devJG_v0.6,2024.1.5,None,2024-08-07 16h22.44.502279 -0400,
88,0,88,0,443.41154000000097,,,,,,,,,443.39545040007215,443.41154000000097,446.41170510009397,448.4115361000877,448.4115361000877,448.39507340011187,sal,GS10,01,False,2024-08-07_16h22.34.056,Gratings_vis_devJG_v0.6,2024.1.5,None,2024-08-07 16h22.44.502279 -0400,
89,0,89,0,448.4115361000877,,,,,,,,,448.39532490004785,448.4115361000877,451.4117035000818,453.4115733000217,453.4115733000217,453.3951098000398,sal,GS10,01,False,2024-08-07_16h22.34.056,Gratings_vis_devJG_v0.6,2024.1.5,None,2024-08-07 16h22.44.502279 -0400,
90,0,90,0,453.4115733000217,,,,,,,,,453.3953636001097,453.4115733000217,456.3950182000408,458.4114716000622,458.4114716000622,458.39508840010967,sal,GS10,01,False,2024-08-07_16h22.34.056,Gratings_vis_devJG_v0.6,2024.1.5,None,2024-08-07 16h22.44.502279 -0400,
91,0,91,0,458.4114716000622,,,,,,,,,458.39534100005403,458.4114716000622,461.4117733000312,463.4114395000506,463.4114395000506,463.3954648000654,sal,GS10,01,False,2024-08-07_16h22.34.056,Gratings_vis_devJG_v0.6,2024.1.5,None,2024-08-07 16h22.44.502279 -0400,
92,0,92,0,463.4114395000506,,,,,,,,,463.3957206000341,463.4114395000506,466.4115901000332,468.4114387000445,468.4114387000445,468.39610240003094,sal,GS10,01,False,2024-08-07_16h22.34.056,Gratings_vis_devJG_v0.6,2024.1.5,None,2024-08-07 16h22.44.502279 -0400,
93,0,93,0,468.4114387000445,,,,,,,,,468.3963690000819,468.4114387000445,471.41171240003314,473.41165470005944,473.41165470005944,473.3951820000075,sal,GS10,01,False,2024-08-07_16h22.34.056,Gratings_vis_devJG_v0.6,2024.1.5,None,2024-08-07 16h22.44.502279 -0400,
94,0,94,0,473.41165470005944,,,,,,,,,473.3954376000911,473.41165470005944,476.39583280007355,478.41306530009024,478.41306530009024,478.3950246000895,sal,GS10,01,False,2024-08-07_16h22.34.056,Gratings_vis_devJG_v0.6,2024.1.5,None,2024-08-07 16h22.44.502279 -0400,
95,0,95,0,478.41306530009024,,,,,,,,,478.3952705000993,478.41306530009024,481.4115586000262,483.4121495001018,483.4121495001018,483.3950581001118,sal,GS10,01,False,2024-08-07_16h22.34.056,Gratings_vis_devJG_v0.6,2024.1.5,None,2024-08-07 16h22.44.502279 -0400,
96,0,96,0,483.4121495001018,,,,,,,,,483.3953150000889,483.4121495001018,486.3949256000342,488.4122421001084,488.4122421001084,488.39507470000535,sal,GS10,01,False,2024-08-07_16h22.34.056,Gratings_vis_devJG_v0.6,2024.1.5,None,2024-08-07 16h22.44.502279 -0400,
97,0,97,0,488.4122421001084,,,,,,,,,488.3953264000593,488.4122421001084,491.41180630004965,493.41131520003546,493.41131520003546,493.39602400001604,sal,GS10,01,False,2024-08-07_16h22.34.056,Gratings_vis_devJG_v0.6,2024.1.5,None,2024-08-07 16h22.44.502279 -0400,
98,0,98,0,493.41131520003546,,,,,,,,,493.3962678000098,493.41131520003546,496.41180320002604,498.4130092000123,498.4130092000123,498.3951418000506,sal,GS10,01,False,2024-08-07_16h22.34.056,Gratings_vis_devJG_v0.6,2024.1.5,None,2024-08-07 16h22.44.502279 -0400,
99,0,99,0,498.4130092000123,,,,,,,,,498.39538210001774,498.4130092000123,501.4117223001085,503.41302100010216,503.41302100010216,503.39492750004865,sal,GS10,01,False,2024-08-07_16h22.34.056,Gratings_vis_devJG_v0.6,2024.1.5,None,2024-08-07 16h22.44.502279 -0400,
100,0,100,0,503.41302100010216,,,,,,,,,503.39518600003794,503.41302100010216,506.41171370004304,508.41280990000814,508.41280990000814,508.3948295000009,sal,GS10,01,False,2024-08-07_16h22.34.056,Gratings_vis_devJG_v0.6,2024.1.5,None,2024-08-07 16h22.44.502279 -0400,
101,0,101,0,508.41280990000814,,,,,,,,,508.39508170005865,508.41280990000814,511.4116460001096,513.4111796000507,513.4111796000507,513.3947788000805,sal,GS10,01,False,2024-08-07_16h22.34.056,Gratings_vis_devJG_v0.6,2024.1.5,None,2024-08-07 16h22.44.502279 -0400,
102,0,102,0,513.4111796000507,,,,,,,,,513.3950212000636,513.4111796000507,516.3958226001123,518.4111578000011,518.4111578000011,518.394795600092,sal,GS10,01,False,2024-08-07_16h22.34.056,Gratings_vis_devJG_v0.6,2024.1.5,None,2024-08-07 16h22.44.502279 -0400,
103,0,103,0,518.4111578000011,,,,,,,,,518.3950523000676,518.4111578000011,521.3962077000178,523.4111924000317,523.4111924000317,523.3947814001003,sal,GS10,01,False,2024-08-07_16h22.34.056,Gratings_vis_devJG_v0.6,2024.1.5,None,2024-08-07 16h22.44.502279 -0400,
104,0,104,0,523.4111924000317,,,,,,,,,523.3950354000553,523.4111924000317,526.3964679000201,528.4111707000993,528.4111707000993,528.3949361999985,sal,GS10,01,False,2024-08-07_16h22.34.056,Gratings_vis_devJG_v0.6,2024.1.5,None,2024-08-07 16h22.44.502279 -0400,
105,0,105,0,528.4111707000993,,,,,,,,,528.3951896000654,528.4111707000993,531.396675700089,533.4110420000507,533.4110420000507,533.3947996000061,sal,GS10,01,False,2024-08-07_16h22.34.056,Gratings_vis_devJG_v0.6,2024.1.5,None,2024-08-07 16h22.44.502279 -0400,
106,0,106,0,533.4110420000507,,,,,,,,,533.3950541000813,533.4110420000507,536.3960190000944,538.4114126000786,538.4114126000786,538.3970428000903,sal,GS10,01,False,2024-08-07_16h22.34.056,Gratings_vis_devJG_v0.6,2024.1.5,None,2024-08-07 16h22.44.502279 -0400,
107,0,107,0,538.4114126000786,,,,,,,,,538.3972903001122,538.4114126000786,541.3972478000214,543.411517300061,543.411517300061,543.3952369000763,sal,GS10,01,False,2024-08-07_16h22.34.056,Gratings_vis_devJG_v0.6,2024.1.5,None,2024-08-07 16h22.44.502279 -0400,
108,0,108,0,543.411517300061,,,,,,,,,543.3954830000876,543.411517300061,546.3988536000252,548.4115046000807,548.4115046000807,548.3954473000485,sal,GS10,01,False,2024-08-07_16h22.34.056,Gratings_vis_devJG_v0.6,2024.1.5,None,2024-08-07 16h22.44.502279 -0400,
109,0,109,0,548.4115046000807,,,,,,,,,548.3956962000811,548.4115046000807,551.4145985000068,553.4144293999998,553.4144293999998,553.3958777000662,sal,GS10,01,False,2024-08-07_16h22.34.056,Gratings_vis_devJG_v0.6,2024.1.5,None,2024-08-07 16h22.44.502279 -0400,
110,0,110,0,553.4144293999998,,,,,,,,,553.3961225000676,553.4144293999998,556.4149087000405,558.4124920000322,558.4124920000322,558.3950904000085,sal,GS10,01,False,2024-08-07_16h22.34.056,Gratings_vis_devJG_v0.6,2024.1.5,None,2024-08-07 16h22.44.502279 -0400,
111,0,111,0,558.4124920000322,,,,,,,,,558.3953688000329,558.4124920000322,561.4151275000768,563.4148572999984,563.4148572999984,563.3969592000358,sal,GS10,01,False,2024-08-07_16h22.34.056,Gratings_vis_devJG_v0.6,2024.1.5,None,2024-08-07 16h22.44.502279 -0400,
112,0,112,0,563.4148572999984,,,,,,,,,563.3972250000807,563.4148572999984,566.4154477000702,568.4151433000807,568.4151433000807,568.3948786000255,sal,GS10,01,False,2024-08-07_16h22.34.056,Gratings_vis_devJG_v0.6,2024.1.5,None,2024-08-07 16h22.44.502279 -0400,
113,0,113,0,568.4151433000807,,,,,,,,,568.3951344001107,568.4151433000807,571.4112887000665,573.4112103000516,573.4112103000516,573.3948462000117,sal,GS10,01,False,2024-08-07_16h22.34.056,Gratings_vis_devJG_v0.6,2024.1.5,None,2024-08-07 16h22.44.502279 -0400,
114,0,114,0,573.4112103000516,,,,,,,,,573.3951099000406,573.4112103000516,576.4113839000929,578.4117758000502,578.4117758000502,578.3948279001052,sal,GS10,01,False,2024-08-07_16h22.34.056,Gratings_vis_devJG_v0.6,2024.1.5,None,2024-08-07 16h22.44.502279 -0400,
115,0,115,0,578.4117758000502,,,,,,,,,578.3950834000716,578.4117758000502,581.4116869000718,583.4109316000249,583.4109316000249,583.3944598000962,sal,GS10,01,False,2024-08-07_16h22.34.056,Gratings_vis_devJG_v0.6,2024.1.5,None,2024-08-07 16h22.44.502279 -0400,
116,0,116,0,583.4109316000249,,,,,,,,,583.3947231000056,583.4109316000249,586.4109987000702,588.4108163000783,588.4108163000783,588.3948155000107,sal,GS10,01,False,2024-08-07_16h22.34.056,Gratings_vis_devJG_v0.6,2024.1.5,None,2024-08-07 16h22.44.502279 -0400,
117,0,117,0,588.4108163000783,,,,,,,,,588.3950854000868,588.4108163000783,591.4108659001067,593.4107438001083,593.4107438001083,593.3943138000323,sal,GS10,01,False,2024-08-07_16h22.34.056,Gratings_vis_devJG_v0.6,2024.1.5,None,2024-08-07 16h22.44.502279 -0400,
118,0,118,0,593.4107438001083,,,,,,,,,593.3945706000086,593.4107438001083,596.4108346001012,598.4108883000445,598.4108883000445,598.3953457000898,sal,GS10,01,False,2024-08-07_16h22.34.056,Gratings_vis_devJG_v0.6,2024.1.5,None,2024-08-07 16h22.44.502279 -0400,
119,0,119,0,598.4108883000445,,,,,,,,,598.3956641000696,598.4108883000445,601.410976300016,603.4344792000484,603.4344792000484,603.3965673000785,sal,GS10,01,False,2024-08-07_16h22.34.056,Gratings_vis_devJG_v0.6,2024.1.5,None,2024-08-07 16h22.44.502279 -0400,
