trials.thisRepN,trials.thisTrialN,trials.thisN,trials.thisIndex,thisRow.t,notes,nidaqTrigger.started,text_waiting_message.started,key_resp.started,nidaqTrigger.stopped,key_resp.keys,key_resp.rt,key_resp.duration,display_gratings.started,stim_grayScreen.started,stim_grating.started,stim_grayScreen.stopped,stim_grating.stopped,display_gratings.stopped,Protocol ID,Subject ID,Session ID,Wait for Trigger,date,expName,psychopyVersion,frameRate,expStart,
,,,,,,0.007024999940767884,0.017034899909049273,0.017034899909049273,3.570334899937734,space,3.5452104000141844,None,,,,,,,high,SB04,01,False,2024-08-08_15h57.57.500,Gratings_vis_devJG_v0.6,2024.1.5,None,2024-08-08 15h58.08.597058 -0400,
0,0,0,0,3.6106395999668166,,,,,,,,,3.609143799985759,3.6106395999668166,6.616899800021201,8.600623199949041,8.600623199949041,8.584276299923658,high,SB04,01,False,2024-08-08_15h57.57.500,Gratings_vis_devJG_v0.6,2024.1.5,None,2024-08-08 15h58.08.597058 -0400,
1,0,1,0,8.600623199949041,,,,,,,,,8.584536999929696,8.618214900023304,11.617505599977449,13.600504199974239,13.600504199974239,13.58652449992951,high,SB04,01,False,2024-08-08_15h57.57.500,Gratings_vis_devJG_v0.6,2024.1.5,None,2024-08-08 15h58.08.597058 -0400,
2,0,2,0,13.600504199974239,,,,,,,,,13.58678150002379,13.617193299927749,16.617470299941488,18.600507499999367,18.600507499999367,18.58552389999386,high,SB04,01,False,2024-08-08_15h57.57.500,Gratings_vis_devJG_v0.6,2024.1.5,None,2024-08-08 15h58.08.597058 -0400,
3,0,3,0,18.600507499999367,,,,,,,,,18.585778299951926,18.61713539995253,21.617392599931918,23.602524199988693,23.602524199988693,23.586070299963467,high,SB04,01,False,2024-08-08_15h57.57.500,Gratings_vis_devJG_v0.6,2024.1.5,None,2024-08-08 15h58.08.597058 -0400,
4,0,4,0,23.602524199988693,,,,,,,,,23.58631229994353,23.61720169999171,26.61730299994815,28.600487799965777,28.600487799965777,28.584401599946432,high,SB04,01,False,2024-08-08_15h57.57.500,Gratings_vis_devJG_v0.6,2024.1.5,None,2024-08-08 15h58.08.597058 -0400,
5,0,5,0,28.600487799965777,,,,,,,,,28.584650599979796,28.61714290000964,31.617270199931227,33.60059960000217,33.60059960000217,33.584063899936154,high,SB04,01,False,2024-08-08_15h57.57.500,Gratings_vis_devJG_v0.6,2024.1.5,None,2024-08-08 15h58.08.597058 -0400,
6,0,6,0,33.60059960000217,,,,,,,,,33.58432869997341,33.617215499980375,36.61734469991643,38.60061359999236,38.60061359999236,38.584071499994025,high,SB04,01,False,2024-08-08_15h57.57.500,Gratings_vis_devJG_v0.6,2024.1.5,None,2024-08-08 15h58.08.597058 -0400,
7,0,7,0,38.60061359999236,,,,,,,,,38.58433869993314,38.617087599937804,41.61757879995275,43.60050279996358,43.60050279996358,43.58403549995273,high,SB04,01,False,2024-08-08_15h57.57.500,Gratings_vis_devJG_v0.6,2024.1.5,None,2024-08-08 15h58.08.597058 -0400,
8,0,8,0,43.60050279996358,,,,,,,,,43.584294999949634,43.617116699926555,46.61785409995355,48.600405799923465,48.600405799923465,48.5842021999415,high,SB04,01,False,2024-08-08_15h57.57.500,Gratings_vis_devJG_v0.6,2024.1.5,None,2024-08-08 15h58.08.597058 -0400,
9,0,9,0,48.600405799923465,,,,,,,,,48.584469499997795,48.61713719996624,51.61814569996204,53.600226099952124,53.600226099952124,53.58396670001093,high,SB04,01,False,2024-08-08_15h57.57.500,Gratings_vis_devJG_v0.6,2024.1.5,None,2024-08-08 15h58.08.597058 -0400,
10,0,10,0,53.600226099952124,,,,,,,,,53.58421349991113,53.61692579998635,56.618366300011985,58.60067329998128,58.60067329998128,58.5838184999302,high,SB04,01,False,2024-08-08_15h57.57.500,Gratings_vis_devJG_v0.6,2024.1.5,None,2024-08-08 15h58.08.597058 -0400,
11,0,11,0,58.60067329998128,,,,,,,,,58.58406489994377,58.61698279995471,61.6186753999209,63.600511199911125,63.600511199911125,63.58442540001124,high,SB04,01,False,2024-08-08_15h57.57.500,Gratings_vis_devJG_v0.6,2024.1.5,None,2024-08-08 15h58.08.597058 -0400,
12,0,12,0,63.600511199911125,,,,,,,,,63.58467010001186,63.617176099913195,66.61896899994463,68.60077119991183,68.60077119991183,68.58464419993106,high,SB04,01,False,2024-08-08_15h57.57.500,Gratings_vis_devJG_v0.6,2024.1.5,None,2024-08-08 15h58.08.597058 -0400,
13,0,13,0,68.60077119991183,,,,,,,,,68.5848968999926,68.61739499995019,71.61931310000364,73.60103329992853,73.60103329992853,73.58469059993513,high,SB04,01,False,2024-08-08_15h57.57.500,Gratings_vis_devJG_v0.6,2024.1.5,None,2024-08-08 15h58.08.597058 -0400,
14,0,14,0,73.60103329992853,,,,,,,,,73.5849537999602,73.61777179990895,76.61958179995418,78.60127270000521,78.60127270000521,78.58499629993457,high,SB04,01,False,2024-08-08_15h57.57.500,Gratings_vis_devJG_v0.6,2024.1.5,None,2024-08-08 15h58.08.597058 -0400,
15,0,15,0,78.60127270000521,,,,,,,,,78.58524479996413,78.61795460002031,81.61993629997596,83.60010609996971,83.60010609996971,83.58372879994567,high,SB04,01,False,2024-08-08_15h57.57.500,Gratings_vis_devJG_v0.6,2024.1.5,None,2024-08-08 15h58.08.597058 -0400,
16,0,16,0,83.60010609996971,,,,,,,,,83.58397589996457,83.61677600000985,86.62023789994419,88.6000064999098,88.6000064999098,88.58366969996132,high,SB04,01,False,2024-08-08_15h57.57.500,Gratings_vis_devJG_v0.6,2024.1.5,None,2024-08-08 15h58.08.597058 -0400,
17,0,17,0,88.6000064999098,,,,,,,,,88.58394509996288,88.61678819998633,91.61751469993033,93.59999479993712,93.59999479993712,93.58360529993661,high,SB04,01,False,2024-08-08_15h57.57.500,Gratings_vis_devJG_v0.6,2024.1.5,None,2024-08-08 15h58.08.597058 -0400,
18,0,18,0,93.59999479993712,,,,,,,,,93.58384999993723,93.616828899947,96.61712619999889,98.60000580002088,98.60000580002088,98.5835046999855,high,SB04,01,False,2024-08-08_15h57.57.500,Gratings_vis_devJG_v0.6,2024.1.5,None,2024-08-08 15h58.08.597058 -0400,
19,0,19,0,98.60000580002088,,,,,,,,,98.58375380001962,98.61672459996771,101.61720179999247,103.599935599952,103.599935599952,103.58396740001626,high,SB04,01,False,2024-08-08_15h57.57.500,Gratings_vis_devJG_v0.6,2024.1.5,None,2024-08-08 15h58.08.597058 -0400,
20,0,20,0,103.599935599952,,,,,,,,,103.58421220001765,103.61669329996221,106.616787499981,108.59988709993195,108.59988709993195,108.5838915000204,high,SB04,01,False,2024-08-08_15h57.57.500,Gratings_vis_devJG_v0.6,2024.1.5,None,2024-08-08 15h58.08.597058 -0400,
21,0,21,0,108.59988709993195,,,,,,,,,108.58414129994344,108.6167509999359,111.61691159999464,113.59992459998466,113.59992459998466,113.5838381999638,high,SB04,01,False,2024-08-08_15h57.57.500,Gratings_vis_devJG_v0.6,2024.1.5,None,2024-08-08 15h58.08.597058 -0400,
22,0,22,0,113.59992459998466,,,,,,,,,113.58407759992406,113.61669689998962,116.61679899995215,118.60021119995508,118.60021119995508,118.58351329993457,high,SB04,01,False,2024-08-08_15h57.57.500,Gratings_vis_devJG_v0.6,2024.1.5,None,2024-08-08 15h58.08.597058 -0400,
23,0,23,0,118.60021119995508,,,,,,,,,118.58375629992224,118.61663369997405,121.6167628999101,,,123.61664020002354,high,SB04,01,False,2024-08-08_15h57.57.500,Gratings_vis_devJG_v0.6,2024.1.5,None,2024-08-08 15h58.08.597058 -0400,
24,0,24,0,123.63330699992366,,,,,,,,,123.61688879993744,123.63330699992366,126.61685899994336,,,128.61659019999206,high,SB04,01,False,2024-08-08_15h57.57.500,Gratings_vis_devJG_v0.6,2024.1.5,None,2024-08-08 15h58.08.597058 -0400,
25,0,25,0,128.63329089991748,,,,,,,,,128.61684319993947,128.63329089991748,131.61670239991508,,,133.61656180000864,high,SB04,01,False,2024-08-08_15h57.57.500,Gratings_vis_devJG_v0.6,2024.1.5,None,2024-08-08 15h58.08.597058 -0400,
26,0,26,0,133.63322349998634,,,,,,,,,133.61687419994269,133.63322349998634,136.61667999997735,,,138.6165527999401,high,SB04,01,False,2024-08-08_15h57.57.500,Gratings_vis_devJG_v0.6,2024.1.5,None,2024-08-08 15h58.08.597058 -0400,
27,0,27,0,138.63325939991046,,,,,,,,,138.6168527000118,138.63325939991046,141.61670399992727,,,143.6164904999314,high,SB04,01,False,2024-08-08_15h57.57.500,Gratings_vis_devJG_v0.6,2024.1.5,None,2024-08-08 15h58.08.597058 -0400,
28,0,28,0,143.63314539997373,,,,,,,,,143.616766299936,143.63314539997373,146.61683269997593,,,148.61650849995203,high,SB04,01,False,2024-08-08_15h57.57.500,Gratings_vis_devJG_v0.6,2024.1.5,None,2024-08-08 15h58.08.597058 -0400,
29,0,29,0,148.63316249998752,,,,,,,,,148.6167914000107,148.63316249998752,151.61672129994258,,,153.6164728999138,high,SB04,01,False,2024-08-08_15h57.57.500,Gratings_vis_devJG_v0.6,2024.1.5,None,2024-08-08 15h58.08.597058 -0400,
30,0,30,0,153.63331489998382,,,,,,,,,153.61672859999817,153.63331489998382,156.61680859990884,,,158.61662779992912,high,SB04,01,False,2024-08-08_15h57.57.500,Gratings_vis_devJG_v0.6,2024.1.5,None,2024-08-08 15h58.08.597058 -0400,
31,0,31,0,158.6330965999514,,,,,,,,,158.61689299996942,158.6330965999514,161.61660700000357,,,163.61645779991522,high,SB04,01,False,2024-08-08_15h57.57.500,Gratings_vis_devJG_v0.6,2024.1.5,None,2024-08-08 15h58.08.597058 -0400,
32,0,32,0,163.63308659999166,,,,,,,,,163.6167306000134,163.63308659999166,166.61653699993622,,,168.61638219992165,high,SB04,01,False,2024-08-08_15h57.57.500,Gratings_vis_devJG_v0.6,2024.1.5,None,2024-08-08 15h58.08.597058 -0400,
33,0,33,0,168.63305199996103,,,,,,,,,168.61663920001592,168.63305199996103,171.6165429999819,,,173.61631469998974,high,SB04,01,False,2024-08-08_15h57.57.500,Gratings_vis_devJG_v0.6,2024.1.5,None,2024-08-08 15h58.08.597058 -0400,
34,0,34,0,173.63296039996203,,,,,,,,,173.6165627000155,173.63296039996203,176.6166058999952,,,178.6163622000022,high,SB04,01,False,2024-08-08_15h57.57.500,Gratings_vis_devJG_v0.6,2024.1.5,None,2024-08-08 15h58.08.597058 -0400,
35,0,35,0,178.6331667000195,,,,,,,,,178.61662659991998,178.6331667000195,181.61661239992827,,,183.6163014000049,high,SB04,01,False,2024-08-08_15h57.57.500,Gratings_vis_devJG_v0.6,2024.1.5,None,2024-08-08 15h58.08.597058 -0400,
36,0,36,0,183.63318359991536,,,,,,,,,183.6165654999204,183.63318359991536,186.61647479992826,,,188.61636310000904,high,SB04,01,False,2024-08-08_15h57.57.500,Gratings_vis_devJG_v0.6,2024.1.5,None,2024-08-08 15h58.08.597058 -0400,
37,0,37,0,188.63294069992844,,,,,,,,,188.616635399987,188.63294069992844,191.61645029997453,,,193.6162472999422,high,SB04,01,False,2024-08-08_15h57.57.500,Gratings_vis_devJG_v0.6,2024.1.5,None,2024-08-08 15h58.08.597058 -0400,
38,0,38,0,193.6329201000044,,,,,,,,,193.61652479995973,193.6329201000044,196.61638159991708,,,198.61626829998568,high,SB04,01,False,2024-08-08_15h57.57.500,Gratings_vis_devJG_v0.6,2024.1.5,None,2024-08-08 15h58.08.597058 -0400,
39,0,39,0,198.63287189998664,,,,,,,,,198.61652559996583,198.63287189998664,201.61629829998128,,,203.61617229995318,high,SB04,01,False,2024-08-08_15h57.57.500,Gratings_vis_devJG_v0.6,2024.1.5,None,2024-08-08 15h58.08.597058 -0400,
40,0,40,0,203.63289259991143,,,,,,,,,203.61641849996522,203.63289259991143,206.6163504999131,,,208.61616919992957,high,SB04,01,False,2024-08-08_15h57.57.500,Gratings_vis_devJG_v0.6,2024.1.5,None,2024-08-08 15h58.08.597058 -0400,
41,0,41,0,208.6330331999343,,,,,,,,,208.61644150002394,208.6330331999343,211.61632379994262,,,213.6161584999645,high,SB04,01,False,2024-08-08_15h57.57.500,Gratings_vis_devJG_v0.6,2024.1.5,None,2024-08-08 15h58.08.597058 -0400,
42,0,42,0,213.63280579994898,,,,,,,,,213.61642129998654,213.63280579994898,216.61664689995814,,,218.61626919999253,high,SB04,01,False,2024-08-08_15h57.57.500,Gratings_vis_devJG_v0.6,2024.1.5,None,2024-08-08 15h58.08.597058 -0400,
43,0,43,0,218.63277139991987,,,,,,,,,218.61653559992556,218.63277139991987,221.61626079992857,,,223.61620239994954,high,SB04,01,False,2024-08-08_15h57.57.500,Gratings_vis_devJG_v0.6,2024.1.5,None,2024-08-08 15h58.08.597058 -0400,
44,0,44,0,223.6327317999676,,,,,,,,,223.6164808999747,223.6327317999676,226.61625490000006,,,228.61608649999835,high,SB04,01,False,2024-08-08_15h57.57.500,Gratings_vis_devJG_v0.6,2024.1.5,None,2024-08-08 15h58.08.597058 -0400,
45,0,45,0,228.6326794999186,,,,,,,,,228.61634259996936,228.6326794999186,231.61621759994887,,,233.61607679992449,high,SB04,01,False,2024-08-08_15h57.57.500,Gratings_vis_devJG_v0.6,2024.1.5,None,2024-08-08 15h58.08.597058 -0400,
46,0,46,0,233.6337023000233,,,,,,,,,233.6163261999609,233.6337023000233,236.61619159998372,,,238.61608059995342,high,SB04,01,False,2024-08-08_15h57.57.500,Gratings_vis_devJG_v0.6,2024.1.5,None,2024-08-08 15h58.08.597058 -0400,
47,0,47,0,238.63266879995354,,,,,,,,,238.616333700018,238.63266879995354,241.61613380000927,,,243.61605469998904,high,SB04,01,False,2024-08-08_15h57.57.500,Gratings_vis_devJG_v0.6,2024.1.5,None,2024-08-08 15h58.08.597058 -0400,
48,0,48,0,243.63265679997858,,,,,,,,,243.61633360001724,243.63265679997858,246.61637940001674,,,248.6159505000105,high,SB04,01,False,2024-08-08_15h57.57.500,Gratings_vis_devJG_v0.6,2024.1.5,None,2024-08-08 15h58.08.597058 -0400,
49,0,49,0,248.63259469997138,,,,,,,,,248.61622999992687,248.63259469997138,251.61616330000106,,,253.6159693999216,high,SB04,01,False,2024-08-08_15h57.57.500,Gratings_vis_devJG_v0.6,2024.1.5,None,2024-08-08 15h58.08.597058 -0400,
50,0,50,0,253.63257269992027,,,,,,,,,253.61621999996714,253.63257269992027,256.615970899933,,,258.61591499997303,high,SB04,01,False,2024-08-08_15h57.57.500,Gratings_vis_devJG_v0.6,2024.1.5,None,2024-08-08 15h58.08.597058 -0400,
51,0,51,0,258.6332447999157,,,,,,,,,258.616191899986,258.6332447999157,261.6159114999464,,,263.61587560002226,high,SB04,01,False,2024-08-08_15h57.57.500,Gratings_vis_devJG_v0.6,2024.1.5,None,2024-08-08 15h58.08.597058 -0400,
52,0,52,0,263.63252360001206,,,,,,,,,263.61612709995825,263.63252360001206,266.6160076999804,,,268.6158645999385,high,SB04,01,False,2024-08-08_15h57.57.500,Gratings_vis_devJG_v0.6,2024.1.5,None,2024-08-08 15h58.08.597058 -0400,
53,0,53,0,268.63250209996477,,,,,,,,,268.616125099943,268.63250209996477,271.61599780002143,,,273.6158239999786,high,SB04,01,False,2024-08-08_15h57.57.500,Gratings_vis_devJG_v0.6,2024.1.5,None,2024-08-08 15h58.08.597058 -0400,
54,0,54,0,273.63247089996,,,,,,,,,273.6160806999542,273.63247089996,276.61601889994927,,,278.61581410001963,high,SB04,01,False,2024-08-08_15h57.57.500,Gratings_vis_devJG_v0.6,2024.1.5,None,2024-08-08 15h58.08.597058 -0400,
55,0,55,0,278.6324343999149,,,,,,,,,278.6160679999739,278.6324343999149,281.61591159994714,,,283.61578819993883,high,SB04,01,False,2024-08-08_15h57.57.500,Gratings_vis_devJG_v0.6,2024.1.5,None,2024-08-08 15h58.08.597058 -0400,
56,0,56,0,283.63251299993135,,,,,,,,,283.61604559991974,283.63251299993135,286.6175229999935,,,288.6163032000186,high,SB04,01,False,2024-08-08_15h57.57.500,Gratings_vis_devJG_v0.6,2024.1.5,None,2024-08-08 15h58.08.597058 -0400,
57,0,57,0,288.63240539992694,,,,,,,,,288.6165585999843,288.63240539992694,291.6170541999163,,,293.61608549999073,high,SB04,01,False,2024-08-08_15h57.57.500,Gratings_vis_devJG_v0.6,2024.1.5,None,2024-08-08 15h58.08.597058 -0400,
58,0,58,0,293.63254089991096,,,,,,,,,293.6163361999206,293.63254089991096,296.61719999997877,,,298.6163093999494,high,SB04,01,False,2024-08-08_15h57.57.500,Gratings_vis_devJG_v0.6,2024.1.5,None,2024-08-08 15h58.08.597058 -0400,
59,0,59,0,298.6330222999677,,,,,,,,,298.61657209997065,298.6330222999677,301.61585729999933,,,303.61573309998494,high,SB04,01,False,2024-08-08_15h57.57.500,Gratings_vis_devJG_v0.6,2024.1.5,None,2024-08-08 15h58.08.597058 -0400,
60,0,60,0,303.6323488999624,,,,,,,,,303.61600959999487,303.6323488999624,306.61580259993207,,,308.6169509999454,high,SB04,01,False,2024-08-08_15h57.57.500,Gratings_vis_devJG_v0.6,2024.1.5,None,2024-08-08 15h58.08.597058 -0400,
61,0,61,0,308.63359859993216,,,,,,,,,308.6172114999499,308.63359859993216,311.615835399949,,,313.61720079998486,high,SB04,01,False,2024-08-08_15h57.57.500,Gratings_vis_devJG_v0.6,2024.1.5,None,2024-08-08 15h58.08.597058 -0400,
62,0,62,0,313.63383770000655,,,,,,,,,313.6174544999376,313.63383770000655,316.6159532999154,,,318.61562729999423,high,SB04,01,False,2024-08-08_15h57.57.500,Gratings_vis_devJG_v0.6,2024.1.5,None,2024-08-08 15h58.08.597058 -0400,
63,0,63,0,318.6341321999207,,,,,,,,,318.61589919996914,318.6341321999207,321.6157452999614,,,323.61561769992113,high,SB04,01,False,2024-08-08_15h57.57.500,Gratings_vis_devJG_v0.6,2024.1.5,None,2024-08-08 15h58.08.597058 -0400,
64,0,64,0,323.63446560001466,,,,,,,,,323.615866499953,323.63446560001466,326.6162040999625,,,328.6155585999368,high,SB04,01,False,2024-08-08_15h57.57.500,Gratings_vis_devJG_v0.6,2024.1.5,None,2024-08-08 15h58.08.597058 -0400,
65,0,65,0,328.6323364999844,,,,,,,,,328.6158412999939,328.6323364999844,331.61584869993385,,,333.6155429999344,high,SB04,01,False,2024-08-08_15h57.57.500,Gratings_vis_devJG_v0.6,2024.1.5,None,2024-08-08 15h58.08.597058 -0400,
66,0,66,0,333.6321901999181,,,,,,,,,333.61583289992996,333.6321901999181,336.6159422999481,,,338.61553409998305,high,SB04,01,False,2024-08-08_15h57.57.500,Gratings_vis_devJG_v0.6,2024.1.5,None,2024-08-08 15h58.08.597058 -0400,
67,0,67,0,338.63214539992623,,,,,,,,,338.6157789999852,338.63214539992623,341.6162016999442,,,343.6157229000237,high,SB04,01,False,2024-08-08_15h57.57.500,Gratings_vis_devJG_v0.6,2024.1.5,None,2024-08-08 15h58.08.597058 -0400,
68,0,68,0,343.6322953000199,,,,,,,,,343.61597339995205,343.6322953000199,346.61652159993537,,,348.61564299999736,high,SB04,01,False,2024-08-08_15h57.57.500,Gratings_vis_devJG_v0.6,2024.1.5,None,2024-08-08 15h58.08.597058 -0400,
69,0,69,0,348.63231899996754,,,,,,,,,348.61589709995314,348.63231899996754,351.6168115999317,,,353.6155245999107,high,SB04,01,False,2024-08-08_15h57.57.500,Gratings_vis_devJG_v0.6,2024.1.5,None,2024-08-08 15h58.08.597058 -0400,
70,0,70,0,353.63214180001523,,,,,,,,,353.6157766999677,353.63214180001523,356.6170661000069,,,358.61561410001013,high,SB04,01,False,2024-08-08_15h57.57.500,Gratings_vis_devJG_v0.6,2024.1.5,None,2024-08-08 15h58.08.597058 -0400,
71,0,71,0,358.63215419999324,,,,,,,,,358.6158589000115,358.63215419999324,361.61731829994824,,,363.6167877999833,high,SB04,01,False,2024-08-08_15h57.57.500,Gratings_vis_devJG_v0.6,2024.1.5,None,2024-08-08 15h58.08.597058 -0400,
72,0,72,0,363.6324877999723,,,,,,,,,363.61704559996724,363.6324877999723,366.6177217999939,,,368.61617309995927,high,SB04,01,False,2024-08-08_15h57.57.500,Gratings_vis_devJG_v0.6,2024.1.5,None,2024-08-08 15h58.08.597058 -0400,
73,0,73,0,368.6333140999777,,,,,,,,,368.6164690000005,368.6333140999777,371.6179750999436,,,373.61646809999365,high,SB04,01,False,2024-08-08_15h57.57.500,Gratings_vis_devJG_v0.6,2024.1.5,None,2024-08-08 15h58.08.597058 -0400,
74,0,74,0,373.6330240999814,,,,,,,,,373.616758499993,373.6330240999814,376.61829419992864,,,378.6167766000144,high,SB04,01,False,2024-08-08_15h57.57.500,Gratings_vis_devJG_v0.6,2024.1.5,None,2024-08-08 15h58.08.597058 -0400,
75,0,75,0,378.6328470999142,,,,,,,,,378.6170224000234,378.6328470999142,381.6157941999845,,,383.61540809995495,high,SB04,01,False,2024-08-08_15h57.57.500,Gratings_vis_devJG_v0.6,2024.1.5,None,2024-08-08 15h58.08.597058 -0400,
76,0,76,0,383.6336978999898,,,,,,,,,383.6156819999451,383.6336978999898,386.61534729995765,,,388.6151702000061,high,SB04,01,False,2024-08-08_15h57.57.500,Gratings_vis_devJG_v0.6,2024.1.5,None,2024-08-08 15h58.08.597058 -0400,
77,0,77,0,388.63178419996984,,,,,,,,,388.6154694999568,388.63178419996984,391.6153114999179,,,393.6151718000183,high,SB04,01,False,2024-08-08_15h57.57.500,Gratings_vis_devJG_v0.6,2024.1.5,None,2024-08-08 15h58.08.597058 -0400,
78,0,78,0,393.6317782999249,,,,,,,,,393.6154457000084,393.6317782999249,396.6153046999825,,,398.6151458999375,high,SB04,01,False,2024-08-08_15h57.57.500,Gratings_vis_devJG_v0.6,2024.1.5,None,2024-08-08 15h58.08.597058 -0400,
79,0,79,0,398.6317526999628,,,,,,,,,398.615415200009,398.6317526999628,401.6155902999453,,,403.61507039994467,high,SB04,01,False,2024-08-08_15h57.57.500,Gratings_vis_devJG_v0.6,2024.1.5,None,2024-08-08 15h58.08.597058 -0400,
80,0,80,0,403.63172860001214,,,,,,,,,403.6153247000184,403.63172860001214,406.6152417999692,,,408.61516389995813,high,SB04,01,False,2024-08-08_15h57.57.500,Gratings_vis_devJG_v0.6,2024.1.5,None,2024-08-08 15h58.08.597058 -0400,
81,0,81,0,408.6318121999502,,,,,,,,,408.615456599975,408.6318121999502,411.6152045999188,,,413.61505569994915,high,SB04,01,False,2024-08-08_15h57.57.500,Gratings_vis_devJG_v0.6,2024.1.5,None,2024-08-08 15h58.08.597058 -0400,
82,0,82,0,413.6317537999712,,,,,,,,,413.6153188999742,413.6317537999712,416.61520679993555,,,418.6150987999281,high,SB04,01,False,2024-08-08_15h57.57.500,Gratings_vis_devJG_v0.6,2024.1.5,None,2024-08-08 15h58.08.597058 -0400,
83,0,83,0,418.63169229996856,,,,,,,,,418.615386200021,418.63169229996856,421.61539329995867,,,423.615012699971,high,SB04,01,False,2024-08-08_15h57.57.500,Gratings_vis_devJG_v0.6,2024.1.5,None,2024-08-08 15h58.08.597058 -0400,
84,0,84,0,423.6316810999997,,,,,,,,,423.615260999999,423.6316810999997,426.61522879998665,,,428.6150792000117,high,SB04,01,False,2024-08-08_15h57.57.500,Gratings_vis_devJG_v0.6,2024.1.5,None,2024-08-08 15h58.08.597058 -0400,
85,0,85,0,428.6316846999107,,,,,,,,,428.6153373999987,428.6316846999107,431.6151980999857,,,433.61498690000735,high,SB04,01,False,2024-08-08_15h57.57.500,Gratings_vis_devJG_v0.6,2024.1.5,None,2024-08-08 15h58.08.597058 -0400,
86,0,86,0,433.6317377999658,,,,,,,,,433.6152994999429,433.6317377999658,436.61512329999823,,,438.6159639999969,high,SB04,01,False,2024-08-08_15h57.57.500,Gratings_vis_devJG_v0.6,2024.1.5,None,2024-08-08 15h58.08.597058 -0400,
87,0,87,0,438.6318805000046,,,,,,,,,438.6162330999505,438.6318805000046,441.61510459997226,,,443.61502209992614,high,SB04,01,False,2024-08-08_15h57.57.500,Gratings_vis_devJG_v0.6,2024.1.5,None,2024-08-08 15h58.08.597058 -0400,
88,0,88,0,443.63161189993843,,,,,,,,,443.615271299961,443.63161189993843,446.61508359992877,,,448.61490459996276,high,SB04,01,False,2024-08-08_15h57.57.500,Gratings_vis_devJG_v0.6,2024.1.5,None,2024-08-08 15h58.08.597058 -0400,
89,0,89,0,448.63158759998623,,,,,,,,,448.6151582999155,448.63158759998623,451.6150781000033,,,453.61484980001114,high,SB04,01,False,2024-08-08_15h57.57.500,Gratings_vis_devJG_v0.6,2024.1.5,None,2024-08-08 15h58.08.597058 -0400,
90,0,90,0,453.63157510000747,,,,,,,,,453.6151142999297,453.63157510000747,456.61503109999467,,,458.6149102000054,high,SB04,01,False,2024-08-08_15h57.57.500,Gratings_vis_devJG_v0.6,2024.1.5,None,2024-08-08 15h58.08.597058 -0400,
91,0,91,0,458.6315205999417,,,,,,,,,458.615160599933,458.6315205999417,461.615025099949,,,463.61485539993737,high,SB04,01,False,2024-08-08_15h57.57.500,Gratings_vis_devJG_v0.6,2024.1.5,None,2024-08-08 15h58.08.597058 -0400,
92,0,92,0,463.6315050999401,,,,,,,,,463.6151097000111,463.6315050999401,466.6150091999443,,,468.6148415999487,high,SB04,01,False,2024-08-08_15h57.57.500,Gratings_vis_devJG_v0.6,2024.1.5,None,2024-08-08 15h58.08.597058 -0400,
93,0,93,0,468.63145769992843,,,,,,,,,468.61513309995644,468.63145769992843,471.61496749997605,,,473.61499329993967,high,SB04,01,False,2024-08-08_15h57.57.500,Gratings_vis_devJG_v0.6,2024.1.5,None,2024-08-08 15h58.08.597058 -0400,
94,0,94,0,473.6315941999201,,,,,,,,,473.6152710999595,473.6315941999201,476.61492199997883,,,478.6148112999508,high,SB04,01,False,2024-08-08_15h57.57.500,Gratings_vis_devJG_v0.6,2024.1.5,None,2024-08-08 15h58.08.597058 -0400,
95,0,95,0,478.631414799951,,,,,,,,,478.6150818999158,478.631414799951,481.61490769998636,,,483.6147331999382,high,SB04,01,False,2024-08-08_15h57.57.500,Gratings_vis_devJG_v0.6,2024.1.5,None,2024-08-08 15h58.08.597058 -0400,
96,0,96,0,483.63139200001024,,,,,,,,,483.6150128999725,483.63139200001024,486.6148532999214,,,488.6146997999167,high,SB04,01,False,2024-08-08_15h57.57.500,Gratings_vis_devJG_v0.6,2024.1.5,None,2024-08-08 15h58.08.597058 -0400,
97,0,97,0,488.6313671999378,,,,,,,,,488.61498559999745,488.6313671999378,491.6148189000087,,,493.6147230999777,high,SB04,01,False,2024-08-08_15h57.57.500,Gratings_vis_devJG_v0.6,2024.1.5,None,2024-08-08 15h58.08.597058 -0400,
98,0,98,0,493.6313495999202,,,,,,,,,493.6150015000021,493.6313495999202,496.6147791999392,,,498.6148159999866,high,SB04,01,False,2024-08-08_15h57.57.500,Gratings_vis_devJG_v0.6,2024.1.5,None,2024-08-08 15h58.08.597058 -0400,
99,0,99,0,498.63138989999425,,,,,,,,,498.61511309992056,498.63138989999425,501.61495169997215,,,503.61465669993777,high,SB04,01,False,2024-08-08_15h57.57.500,Gratings_vis_devJG_v0.6,2024.1.5,None,2024-08-08 15h58.08.597058 -0400,
100,0,100,0,503.6312998000067,,,,,,,,,503.61490819999017,503.6312998000067,506.61479909997433,,,508.61461229994893,high,SB04,01,False,2024-08-08_15h57.57.500,Gratings_vis_devJG_v0.6,2024.1.5,None,2024-08-08 15h58.08.597058 -0400,
101,0,101,0,508.6312692000065,,,,,,,,,508.6148886999581,508.6312692000065,511.6148369999137,,,513.6146282999543,high,SB04,01,False,2024-08-08_15h57.57.500,Gratings_vis_devJG_v0.6,2024.1.5,None,2024-08-08 15h58.08.597058 -0400,
102,0,102,0,513.6312652999768,,,,,,,,,513.614917299943,513.6312652999768,516.6148385999259,,,518.6146127999527,high,SB04,01,False,2024-08-08_15h57.57.500,Gratings_vis_devJG_v0.6,2024.1.5,None,2024-08-08 15h58.08.597058 -0400,
103,0,103,0,518.6312078000046,,,,,,,,,518.6148828999139,518.6312078000046,521.6146634999895,,,523.6145482999273,high,SB04,01,False,2024-08-08_15h57.57.500,Gratings_vis_devJG_v0.6,2024.1.5,None,2024-08-08 15h58.08.597058 -0400,
104,0,104,0,523.6311181000201,,,,,,,,,523.6148012999911,523.6311181000201,526.6145848999731,,,528.6144938999787,high,SB04,01,False,2024-08-08_15h57.57.500,Gratings_vis_devJG_v0.6,2024.1.5,None,2024-08-08 15h58.08.597058 -0400,
105,0,105,0,528.6311312000034,,,,,,,,,528.6147772999248,528.6311312000034,531.6146293999627,,,533.6144803999923,high,SB04,01,False,2024-08-08_15h57.57.500,Gratings_vis_devJG_v0.6,2024.1.5,None,2024-08-08 15h58.08.597058 -0400,
106,0,106,0,533.6311069999356,,,,,,,,,533.6147352999542,533.6311069999356,536.6147471999284,,,538.6145121000009,high,SB04,01,False,2024-08-08_15h57.57.500,Gratings_vis_devJG_v0.6,2024.1.5,None,2024-08-08 15h58.08.597058 -0400,
107,0,107,0,538.6310707000084,,,,,,,,,538.6148007999873,538.6310707000084,541.6146430999506,,,543.6144365000073,high,SB04,01,False,2024-08-08_15h57.57.500,Gratings_vis_devJG_v0.6,2024.1.5,None,2024-08-08 15h58.08.597058 -0400,
108,0,108,0,543.631048399955,,,,,,,,,543.6146833000239,543.631048399955,546.6145944999298,,,548.6144368000096,high,SB04,01,False,2024-08-08_15h57.57.500,Gratings_vis_devJG_v0.6,2024.1.5,None,2024-08-08 15h58.08.597058 -0400,
109,0,109,0,548.6310363999801,,,,,,,,,548.614700099919,548.6310363999801,551.6146681000246,,,553.6144633999793,high,SB04,01,False,2024-08-08_15h57.57.500,Gratings_vis_devJG_v0.6,2024.1.5,None,2024-08-08 15h58.08.597058 -0400,
110,0,110,0,553.6310526999878,,,,,,,,,553.6147206999594,553.6310526999878,556.6146560999332,,,558.6144425999373,high,SB04,01,False,2024-08-08_15h57.57.500,Gratings_vis_devJG_v0.6,2024.1.5,None,2024-08-08 15h58.08.597058 -0400,
111,0,111,0,558.6311814999208,,,,,,,,,558.6147279000143,558.6311814999208,561.6145200999454,,,563.6143383999588,high,SB04,01,False,2024-08-08_15h57.57.500,Gratings_vis_devJG_v0.6,2024.1.5,None,2024-08-08 15h58.08.597058 -0400,
112,0,112,0,563.6309980999213,,,,,,,,,563.6146110999398,563.6309980999213,566.6144076000201,,,568.6142708999105,high,SB04,01,False,2024-08-08_15h57.57.500,Gratings_vis_devJG_v0.6,2024.1.5,None,2024-08-08 15h58.08.597058 -0400,
113,0,113,0,568.6309602999827,,,,,,,,,568.6145192999393,568.6309602999827,571.6144092999166,,,573.614231799962,high,SB04,01,False,2024-08-08_15h57.57.500,Gratings_vis_devJG_v0.6,2024.1.5,None,2024-08-08 15h58.08.597058 -0400,
114,0,114,0,573.6309446999803,,,,,,,,,573.6144846999086,573.6309446999803,576.6144504999975,,,578.6143391999649,high,SB04,01,False,2024-08-08_15h57.57.500,Gratings_vis_devJG_v0.6,2024.1.5,None,2024-08-08 15h58.08.597058 -0400,
115,0,115,0,578.6309140999801,,,,,,,,,578.6146117999451,578.6309140999801,581.6144398999168,,,583.6143145000096,high,SB04,01,False,2024-08-08_15h57.57.500,Gratings_vis_devJG_v0.6,2024.1.5,None,2024-08-08 15h58.08.597058 -0400,
116,0,116,0,583.6308183999499,,,,,,,,,583.6145685999654,583.6308183999499,586.6144566999283,,,588.614192100009,high,SB04,01,False,2024-08-08_15h57.57.500,Gratings_vis_devJG_v0.6,2024.1.5,None,2024-08-08 15h58.08.597058 -0400,
117,0,117,0,588.6308162999339,,,,,,,,,588.6144844000228,588.6308162999339,591.6142936999677,,,593.6141991999466,high,SB04,01,False,2024-08-08_15h57.57.500,Gratings_vis_devJG_v0.6,2024.1.5,None,2024-08-08 15h58.08.597058 -0400,
118,0,118,0,593.6307934999932,,,,,,,,,593.6144544999115,593.6307934999932,596.6165597999934,,,598.6153053999878,high,SB04,01,False,2024-08-08_15h57.57.500,Gratings_vis_devJG_v0.6,2024.1.5,None,2024-08-08 15h58.08.597058 -0400,
119,0,119,0,598.6307883999543,,,,,,,,,598.6155548999086,598.6307883999543,601.6161615999881,,,603.6154921000125,high,SB04,01,False,2024-08-08_15h57.57.500,Gratings_vis_devJG_v0.6,2024.1.5,None,2024-08-08 15h58.08.597058 -0400,
