trials.thisRepN,trials.thisTrialN,trials.thisN,trials.thisIndex,thisRow.t,notes,nidaqTrigger.started,text_waiting_message.started,key_resp.started,nidaqTrigger.stopped,key_resp.keys,key_resp.rt,key_resp.duration,display_gratings.started,stim_grayScreen.started,stim_grating.started,display_gratings.stopped,Protocol ID,Subject ID,Session ID,Wait for Trigger,date,expName,psychopyVersion,frameRate,expStart,
,,,,,,0.007630700012668967,0.01476549997460097,0.01476549997460097,8.5675285999896,space,8.550602399976924,None,,,,,high,GS15,01,False,2024-08-08_19h03.32.715,Gratings_vis_devJG_v0.6,2024.1.5,None,2024-08-08 19h03.45.522438 -0400,
0,0,0,0,8.679103499976918,,,,,,,,,8.607070000027306,8.679103499976918,11.6155926999636,13.615231200004928,high,GS15,01,False,2024-08-08_19h03.32.715,Gratings_vis_devJG_v0.6,2024.1.5,None,2024-08-08 19h03.45.522438 -0400,
1,0,1,0,13.63206969993189,,,,,,,,,13.615506000001915,13.63206969993189,16.615277100005187,18.615216300007887,high,GS15,01,False,2024-08-08_19h03.32.715,Gratings_vis_devJG_v0.6,2024.1.5,None,2024-08-08 19h03.45.522438 -0400,
2,0,2,0,18.631807300029323,,,,,,,,,18.615489299991168,18.631807300029323,21.615260099992156,23.615197799983434,high,GS15,01,False,2024-08-08_19h03.32.715,Gratings_vis_devJG_v0.6,2024.1.5,None,2024-08-08 19h03.45.522438 -0400,
3,0,3,0,23.631778999930248,,,,,,,,,23.615464599919505,23.631778999930248,26.615597099997103,28.615122999995947,high,GS15,01,False,2024-08-08_19h03.32.715,Gratings_vis_devJG_v0.6,2024.1.5,None,2024-08-08 19h03.45.522438 -0400,
4,0,4,0,28.63177670002915,,,,,,,,,28.61538410000503,28.63177670002915,31.615277000004426,33.61507229995914,high,GS15,01,False,2024-08-08_19h03.32.715,Gratings_vis_devJG_v0.6,2024.1.5,None,2024-08-08 19h03.45.522438 -0400,
5,0,5,0,33.63175409997348,,,,,,,,,33.61532979994081,33.63175409997348,36.615198499988765,38.61504149995744,high,GS15,01,False,2024-08-08_19h03.32.715,Gratings_vis_devJG_v0.6,2024.1.5,None,2024-08-08 19h03.45.522438 -0400,
6,0,6,0,38.631725599989295,,,,,,,,,38.61530710000079,38.631725599989295,41.61550419998821,43.61526120000053,high,GS15,01,False,2024-08-08_19h03.32.715,Gratings_vis_devJG_v0.6,2024.1.5,None,2024-08-08 19h03.45.522438 -0400,
7,0,7,0,43.63188709993847,,,,,,,,,43.6155226000119,43.63188709993847,46.61534040002152,48.61498559999745,high,GS15,01,False,2024-08-08_19h03.32.715,Gratings_vis_devJG_v0.6,2024.1.5,None,2024-08-08 19h03.45.522438 -0400,
8,0,8,0,48.631669000023976,,,,,,,,,48.61525079992134,48.631669000023976,51.61557080002967,53.61496039992198,high,GS15,01,False,2024-08-08_19h03.32.715,Gratings_vis_devJG_v0.6,2024.1.5,None,2024-08-08 19h03.45.522438 -0400,
9,0,9,0,53.63158609997481,,,,,,,,,53.615221399930306,53.63158609997481,56.61519559996668,58.614980199956335,high,GS15,01,False,2024-08-08_19h03.32.715,Gratings_vis_devJG_v0.6,2024.1.5,None,2024-08-08 19h03.45.522438 -0400,
10,0,10,0,58.63161579996813,,,,,,,,,58.6152816999238,58.63161579996813,61.61549759993795,63.61496229993645,high,GS15,01,False,2024-08-08_19h03.32.715,Gratings_vis_devJG_v0.6,2024.1.5,None,2024-08-08 19h03.45.522438 -0400,
11,0,11,0,63.63161799998488,,,,,,,,,63.61524970002938,63.63161799998488,66.6153305999469,68.61496179993264,high,GS15,01,False,2024-08-08_19h03.32.715,Gratings_vis_devJG_v0.6,2024.1.5,None,2024-08-08 19h03.45.522438 -0400,
12,0,12,0,68.63160670001525,,,,,,,,,68.61522339994553,68.63160670001525,71.61506300000474,73.61490229994524,high,GS15,01,False,2024-08-08_19h03.32.715,Gratings_vis_devJG_v0.6,2024.1.5,None,2024-08-08 19h03.45.522438 -0400,
13,0,13,0,73.6315247999737,,,,,,,,,73.61516909999773,73.6315247999737,76.61503410001751,78.61487829999533,high,GS15,01,False,2024-08-08_19h03.32.715,Gratings_vis_devJG_v0.6,2024.1.5,None,2024-08-08 19h03.45.522438 -0400,
14,0,14,0,78.63150909997057,,,,,,,,,78.61515450000297,78.63150909997057,81.61499699996784,83.61485989997163,high,GS15,01,False,2024-08-08_19h03.32.715,Gratings_vis_devJG_v0.6,2024.1.5,None,2024-08-08 19h03.45.522438 -0400,
15,0,15,0,83.63150080002379,,,,,,,,,83.61510830000043,83.63150080002379,86.61497719993349,88.61483450001106,high,GS15,01,False,2024-08-08_19h03.32.715,Gratings_vis_devJG_v0.6,2024.1.5,None,2024-08-08 19h03.45.522438 -0400,
16,0,16,0,88.63145969994366,,,,,,,,,88.61509229999501,88.63145969994366,91.61509189999197,93.61483829992358,high,GS15,01,False,2024-08-08_19h03.32.715,Gratings_vis_devJG_v0.6,2024.1.5,None,2024-08-08 19h03.45.522438 -0400,
17,0,17,0,93.63146239996422,,,,,,,,,93.61510529997759,93.63146239996422,96.61491050000768,98.61477119999472,high,GS15,01,False,2024-08-08_19h03.32.715,Gratings_vis_devJG_v0.6,2024.1.5,None,2024-08-08 19h03.45.522438 -0400,
18,0,18,0,98.63139779993799,,,,,,,,,98.61505010002293,98.63139779993799,101.61499059991911,103.61475149996113,high,GS15,01,False,2024-08-08_19h03.32.715,Gratings_vis_devJG_v0.6,2024.1.5,None,2024-08-08 19h03.45.522438 -0400,
19,0,19,0,103.63154069997836,,,,,,,,,103.61500999995042,103.63154069997836,106.61489919992164,108.61474270001054,high,GS15,01,False,2024-08-08_19h03.32.715,Gratings_vis_devJG_v0.6,2024.1.5,None,2024-08-08 19h03.45.522438 -0400,
20,0,20,0,108.6313621000154,,,,,,,,,108.61502309993375,108.6313621000154,111.61502629995812,113.61470429995097,high,GS15,01,False,2024-08-08_19h03.32.715,Gratings_vis_devJG_v0.6,2024.1.5,None,2024-08-08 19h03.45.522438 -0400,
21,0,21,0,113.63133689993992,,,,,,,,,113.61496519995853,113.63133689993992,116.61490329995286,118.6146493999986,high,GS15,01,False,2024-08-08_19h03.32.715,Gratings_vis_devJG_v0.6,2024.1.5,None,2024-08-08 19h03.45.522438 -0400,
22,0,22,0,118.6312797999708,,,,,,,,,118.61492600000929,118.6312797999708,121.61478039994836,123.61648929992225,high,GS15,01,False,2024-08-08_19h03.32.715,Gratings_vis_devJG_v0.6,2024.1.5,None,2024-08-08 19h03.45.522438 -0400,
23,0,23,0,123.63131650001742,,,,,,,,,123.61679020000156,123.63131650001742,126.6148415999487,128.61584839993156,high,GS15,01,False,2024-08-08_19h03.32.715,Gratings_vis_devJG_v0.6,2024.1.5,None,2024-08-08 19h03.45.522438 -0400,
24,0,24,0,128.63126049994025,,,,,,,,,128.6161380999256,128.63126049994025,131.61646699998528,133.6155458999565,high,GS15,01,False,2024-08-08_19h03.32.715,Gratings_vis_devJG_v0.6,2024.1.5,None,2024-08-08 19h03.45.522438 -0400,
25,0,25,0,133.63288169994485,,,,,,,,,133.61580040003173,133.63288169994485,136.61554279993288,138.6148159999866,high,GS15,01,False,2024-08-08_19h03.32.715,Gratings_vis_devJG_v0.6,2024.1.5,None,2024-08-08 19h03.45.522438 -0400,
26,0,26,0,138.63307049998548,,,,,,,,,138.6150599999819,138.63307049998548,141.61478439997882,143.61621969996486,high,GS15,01,False,2024-08-08_19h03.32.715,Gratings_vis_devJG_v0.6,2024.1.5,None,2024-08-08 19h03.45.522438 -0400,
27,0,27,0,143.63281320000533,,,,,,,,,143.61648959992453,143.63281320000533,146.61467529996298,148.6165569999721,high,GS15,01,False,2024-08-08_19h03.32.715,Gratings_vis_devJG_v0.6,2024.1.5,None,2024-08-08 19h03.45.522438 -0400,
28,0,28,0,148.63154480000958,,,,,,,,,148.6168148999568,148.63154480000958,151.61472299997695,153.61465390003286,high,GS15,01,False,2024-08-08_19h03.32.715,Gratings_vis_devJG_v0.6,2024.1.5,None,2024-08-08 19h03.45.522438 -0400,
29,0,29,0,153.63147179991938,,,,,,,,,153.61492550000548,153.63147179991938,156.61474160000216,158.6144501999952,high,GS15,01,False,2024-08-08_19h03.32.715,Gratings_vis_devJG_v0.6,2024.1.5,None,2024-08-08 19h03.45.522438 -0400,
30,0,30,0,158.6312427999219,,,,,,,,,158.61470459995326,158.6312427999219,161.6148933999939,163.6144520000089,high,GS15,01,False,2024-08-08_19h03.32.715,Gratings_vis_devJG_v0.6,2024.1.5,None,2024-08-08 19h03.45.522438 -0400,
31,0,31,0,163.63112409994937,,,,,,,,,163.6147321999306,163.63112409994937,166.61517469992395,168.6144035999896,high,GS15,01,False,2024-08-08_19h03.32.715,Gratings_vis_devJG_v0.6,2024.1.5,None,2024-08-08 19h03.45.522438 -0400,
32,0,32,0,168.6312329999637,,,,,,,,,168.61466349998955,168.6312329999637,171.61545189993922,173.61458059994038,high,GS15,01,False,2024-08-08_19h03.32.715,Gratings_vis_devJG_v0.6,2024.1.5,None,2024-08-08 19h03.45.522438 -0400,
33,0,33,0,173.63106759998482,,,,,,,,,173.61488030001055,173.63106759998482,176.61574339994695,178.61512189998757,high,GS15,01,False,2024-08-08_19h03.32.715,Gratings_vis_devJG_v0.6,2024.1.5,None,2024-08-08 19h03.45.522438 -0400,
34,0,34,0,178.6311749999877,,,,,,,,,178.61562549998052,178.6311749999877,181.6160218999721,183.61457859992515,high,GS15,01,False,2024-08-08_19h03.32.715,Gratings_vis_devJG_v0.6,2024.1.5,None,2024-08-08 19h03.45.522438 -0400,
35,0,35,0,183.63113559992053,,,,,,,,,183.61483839992434,183.63113559992053,186.616350300028,188.61479499994311,high,GS15,01,False,2024-08-08_19h03.32.715,Gratings_vis_devJG_v0.6,2024.1.5,None,2024-08-08 19h03.45.522438 -0400,
36,0,36,0,188.63140439998824,,,,,,,,,188.6150526999263,188.63140439998824,191.6166888999287,193.61526689992752,high,GS15,01,False,2024-08-08_19h03.32.715,Gratings_vis_devJG_v0.6,2024.1.5,None,2024-08-08 19h03.45.522438 -0400,
37,0,37,0,193.6318290999625,,,,,,,,,193.61553379998077,193.6318290999625,196.61706049996428,198.61540999996942,high,GS15,01,False,2024-08-08_19h03.32.715,Gratings_vis_devJG_v0.6,2024.1.5,None,2024-08-08 19h03.45.522438 -0400,
38,0,38,0,198.63206360000186,,,,,,,,,198.61570429999847,198.63206360000186,201.61743809992913,203.61427110002842,high,GS15,01,False,2024-08-08_19h03.32.715,Gratings_vis_devJG_v0.6,2024.1.5,None,2024-08-08 19h03.45.522438 -0400,
39,0,39,0,203.6309312999947,,,,,,,,,203.61458429996856,203.6309312999947,206.61765999998897,208.61429419997148,high,GS15,01,False,2024-08-08_19h03.32.715,Gratings_vis_devJG_v0.6,2024.1.5,None,2024-08-08 19h03.45.522438 -0400,
40,0,40,0,208.6324777000118,,,,,,,,,208.61454580002464,208.6324777000118,211.61436539993156,213.61410829995293,high,GS15,01,False,2024-08-08_19h03.32.715,Gratings_vis_devJG_v0.6,2024.1.5,None,2024-08-08 19h03.45.522438 -0400,
41,0,41,0,213.63082359998953,,,,,,,,,213.6144102999242,213.63082359998953,216.61424379993696,218.6141445999965,high,GS15,01,False,2024-08-08_19h03.32.715,Gratings_vis_devJG_v0.6,2024.1.5,None,2024-08-08 19h03.45.522438 -0400,
42,0,42,0,218.6306779999286,,,,,,,,,218.61440730001777,218.6306779999286,221.6145717999898,223.6142869000323,high,GS15,01,False,2024-08-08_19h03.32.715,Gratings_vis_devJG_v0.6,2024.1.5,None,2024-08-08 19h03.45.522438 -0400,
43,0,43,0,223.63065449998248,,,,,,,,,223.61464299994987,223.63065449998248,226.61411550000776,228.61411399999633,high,GS15,01,False,2024-08-08_19h03.32.715,Gratings_vis_devJG_v0.6,2024.1.5,None,2024-08-08 19h03.45.522438 -0400,
44,0,44,0,228.63083639997058,,,,,,,,,228.6143864999758,228.63083639997058,231.6143512999406,233.61414419999346,high,GS15,01,False,2024-08-08_19h03.32.715,Gratings_vis_devJG_v0.6,2024.1.5,None,2024-08-08 19h03.45.522438 -0400,
45,0,45,0,233.63080549996812,,,,,,,,,233.61441069992725,233.63080549996812,236.6141146000009,238.61404959997162,high,GS15,01,False,2024-08-08_19h03.32.715,Gratings_vis_devJG_v0.6,2024.1.5,None,2024-08-08 19h03.45.522438 -0400,
46,0,46,0,238.63074559997767,,,,,,,,,238.61435039993376,238.63074559997767,241.6141067999415,243.6141673999373,high,GS15,01,False,2024-08-08_19h03.32.715,Gratings_vis_devJG_v0.6,2024.1.5,None,2024-08-08 19h03.45.522438 -0400,
47,0,47,0,243.63070660002995,,,,,,,,,243.61444829998072,243.63070660002995,246.61421259993222,248.61393490002956,high,GS15,01,False,2024-08-08_19h03.32.715,Gratings_vis_devJG_v0.6,2024.1.5,None,2024-08-08 19h03.45.522438 -0400,
48,0,48,0,248.63060109992512,,,,,,,,,248.61422400001902,248.63060109992512,251.61419079999905,253.6139135999838,high,GS15,01,False,2024-08-08_19h03.32.715,Gratings_vis_devJG_v0.6,2024.1.5,None,2024-08-08 19h03.45.522438 -0400,
49,0,49,0,253.63065900001675,,,,,,,,,253.61420069995802,253.63065900001675,256.6141828999389,258.6143780000275,high,GS15,01,False,2024-08-08_19h03.32.715,Gratings_vis_devJG_v0.6,2024.1.5,None,2024-08-08 19h03.45.522438 -0400,
50,0,50,0,258.6308469999349,,,,,,,,,258.6146691000322,258.6308469999349,261.614229699946,263.6141047999263,high,GS15,01,False,2024-08-08_19h03.32.715,Gratings_vis_devJG_v0.6,2024.1.5,None,2024-08-08 19h03.45.522438 -0400,
51,0,51,0,263.63055370002985,,,,,,,,,263.6143729999894,263.63055370002985,266.6143533999566,268.6138577000238,high,GS15,01,False,2024-08-08_19h03.32.715,Gratings_vis_devJG_v0.6,2024.1.5,None,2024-08-08 19h03.45.522438 -0400,
52,0,52,0,268.6305244999239,,,,,,,,,268.61412299994845,268.6305244999239,271.61417680000886,273.6139202999184,high,GS15,01,False,2024-08-08_19h03.32.715,Gratings_vis_devJG_v0.6,2024.1.5,None,2024-08-08 19h03.45.522438 -0400,
53,0,53,0,273.6306699999841,,,,,,,,,273.6141798000317,273.6306699999841,276.61396669992246,278.613906799932,high,GS15,01,False,2024-08-08_19h03.32.715,Gratings_vis_devJG_v0.6,2024.1.5,None,2024-08-08 19h03.45.522438 -0400,
54,0,54,0,278.6304673999548,,,,,,,,,278.61422210000455,278.6304673999548,281.6139706999529,283.6140566000249,high,GS15,01,False,2024-08-08_19h03.32.715,Gratings_vis_devJG_v0.6,2024.1.5,None,2024-08-08 19h03.45.522438 -0400,
55,0,55,0,283.630596700008,,,,,,,,,283.61432589998003,283.630596700008,286.6140106000239,288.613734500017,high,GS15,01,False,2024-08-08_19h03.32.715,Gratings_vis_devJG_v0.6,2024.1.5,None,2024-08-08 19h03.45.522438 -0400,
56,0,56,0,288.63042379997205,,,,,,,,,288.6139841999393,288.63042379997205,291.613875299925,293.61371810000855,high,GS15,01,False,2024-08-08_19h03.32.715,Gratings_vis_devJG_v0.6,2024.1.5,None,2024-08-08 19h03.45.522438 -0400,
57,0,57,0,293.6303728999337,,,,,,,,,293.61400629999116,293.6303728999337,296.6138685999904,298.6138208999764,high,GS15,01,False,2024-08-08_19h03.32.715,Gratings_vis_devJG_v0.6,2024.1.5,None,2024-08-08 19h03.45.522438 -0400,
58,0,58,0,298.6303297999548,,,,,,,,,298.6140798999695,298.6303297999548,301.6138625999447,303.61375899997074,high,GS15,01,False,2024-08-08_19h03.32.715,Gratings_vis_devJG_v0.6,2024.1.5,None,2024-08-08 19h03.45.522438 -0400,
59,0,59,0,303.63035079999827,,,,,,,,,303.61401869996917,303.63035079999827,306.61412579996977,308.61398000002373,high,GS15,01,False,2024-08-08_19h03.32.715,Gratings_vis_devJG_v0.6,2024.1.5,None,2024-08-08 19h03.45.522438 -0400,
60,0,60,0,308.63032060000114,,,,,,,,,308.61422909994144,308.63032060000114,311.6137824000325,313.6136892000213,high,GS15,01,False,2024-08-08_19h03.32.715,Gratings_vis_devJG_v0.6,2024.1.5,None,2024-08-08 19h03.45.522438 -0400,
61,0,61,0,313.6302950999234,,,,,,,,,313.6139406999573,313.6302950999234,316.61376340000425,318.6136020999402,high,GS15,01,False,2024-08-08_19h03.32.715,Gratings_vis_devJG_v0.6,2024.1.5,None,2024-08-08 19h03.45.522438 -0400,
62,0,62,0,318.6302378999535,,,,,,,,,318.61386969999876,318.6302378999535,321.61364879994653,323.6135953000048,high,GS15,01,False,2024-08-08_19h03.32.715,Gratings_vis_devJG_v0.6,2024.1.5,None,2024-08-08 19h03.45.522438 -0400,
63,0,63,0,323.63047760003246,,,,,,,,,323.61385079997126,323.63047760003246,326.61369639995974,328.61354479996953,high,GS15,01,False,2024-08-08_19h03.32.715,Gratings_vis_devJG_v0.6,2024.1.5,None,2024-08-08 19h03.45.522438 -0400,
64,0,64,0,328.63021839992143,,,,,,,,,328.6137983999215,328.63021839992143,331.6139090999495,333.6136169999372,high,GS15,01,False,2024-08-08_19h03.32.715,Gratings_vis_devJG_v0.6,2024.1.5,None,2024-08-08 19h03.45.522438 -0400,
65,0,65,0,333.6301846000133,,,,,,,,,333.61391339998227,333.6301846000133,336.61374549998436,338.61349269992206,high,GS15,01,False,2024-08-08_19h03.32.715,Gratings_vis_devJG_v0.6,2024.1.5,None,2024-08-08 19h03.45.522438 -0400,
66,0,66,0,338.6301201999886,,,,,,,,,338.6137514000293,338.6301201999886,341.61405989993364,343.6134843999753,high,GS15,01,False,2024-08-08_19h03.32.715,Gratings_vis_devJG_v0.6,2024.1.5,None,2024-08-08 19h03.45.522438 -0400,
67,0,67,0,343.6301291999407,,,,,,,,,343.6137523999205,343.6301291999407,346.61358979996294,348.613444800023,high,GS15,01,False,2024-08-08_19h03.32.715,Gratings_vis_devJG_v0.6,2024.1.5,None,2024-08-08 19h03.45.522438 -0400,
68,0,68,0,348.6303646999877,,,,,,,,,348.61387689993717,348.6303646999877,351.6135524000274,353.6134361999575,high,GS15,01,False,2024-08-08_19h03.32.715,Gratings_vis_devJG_v0.6,2024.1.5,None,2024-08-08 19h03.45.522438 -0400,
69,0,69,0,353.6300691999495,,,,,,,,,353.6136922999285,353.6300691999495,356.6140193999745,358.6133645999944,high,GS15,01,False,2024-08-08_19h03.32.715,Gratings_vis_devJG_v0.6,2024.1.5,None,2024-08-08 19h03.45.522438 -0400,
70,0,70,0,358.6300341000315,,,,,,,,,358.61362600000575,358.6300341000315,361.61371659999713,363.61337109992746,high,GS15,01,False,2024-08-08_19h03.32.715,Gratings_vis_devJG_v0.6,2024.1.5,None,2024-08-08 19h03.45.522438 -0400,
71,0,71,0,363.629946299945,,,,,,,,,363.61362419999205,363.629946299945,366.6134974999586,368.61344129999634,high,GS15,01,False,2024-08-08_19h03.32.715,Gratings_vis_devJG_v0.6,2024.1.5,None,2024-08-08 19h03.45.522438 -0400,
72,0,72,0,368.62990579998586,,,,,,,,,368.61370280000847,368.62990579998586,371.6134475999279,373.613319600001,high,GS15,01,False,2024-08-08_19h03.32.715,Gratings_vis_devJG_v0.6,2024.1.5,None,2024-08-08 19h03.45.522438 -0400,
73,0,73,0,373.6299755999353,,,,,,,,,373.6135903999675,373.6299755999353,376.6134046999505,378.6132540999679,high,GS15,01,False,2024-08-08_19h03.32.715,Gratings_vis_devJG_v0.6,2024.1.5,None,2024-08-08 19h03.45.522438 -0400,
74,0,74,0,378.6298834999325,,,,,,,,,378.61351159994956,378.6298834999325,381.6134480999317,383.61328469996806,high,GS15,01,False,2024-08-08_19h03.32.715,Gratings_vis_devJG_v0.6,2024.1.5,None,2024-08-08 19h03.45.522438 -0400,
75,0,75,0,383.630056999973,,,,,,,,,383.6135468999855,383.630056999973,386.6133867999306,388.6133213000139,high,GS15,01,False,2024-08-08_19h03.32.715,Gratings_vis_devJG_v0.6,2024.1.5,None,2024-08-08 19h03.45.522438 -0400,
76,0,76,0,388.6298922999995,,,,,,,,,388.6136007999303,388.6298922999995,391.6133740999503,393.6132574999938,high,GS15,01,False,2024-08-08_19h03.32.715,Gratings_vis_devJG_v0.6,2024.1.5,None,2024-08-08 19h03.45.522438 -0400,
77,0,77,0,393.6298659000313,,,,,,,,,393.6135394999292,393.6298659000313,396.61340219993144,398.61328759999014,high,GS15,01,False,2024-08-08_19h03.32.715,Gratings_vis_devJG_v0.6,2024.1.5,None,2024-08-08 19h03.45.522438 -0400,
78,0,78,0,398.62984690000303,,,,,,,,,398.6135725999484,398.62984690000303,401.6133689000271,403.61316549999174,high,GS15,01,False,2024-08-08_19h03.32.715,Gratings_vis_devJG_v0.6,2024.1.5,None,2024-08-08 19h03.45.522438 -0400,
79,0,79,0,403.629986200016,,,,,,,,,403.613457200001,403.629986200016,406.61342259997036,408.6132938999217,high,GS15,01,False,2024-08-08_19h03.32.715,Gratings_vis_devJG_v0.6,2024.1.5,None,2024-08-08 19h03.45.522438 -0400,
80,0,80,0,408.62985719996504,,,,,,,,,408.61355869995896,408.62985719996504,411.6132585000014,413.6132363999495,high,GS15,01,False,2024-08-08_19h03.32.715,Gratings_vis_devJG_v0.6,2024.1.5,None,2024-08-08 19h03.45.522438 -0400,
81,0,81,0,413.630225299974,,,,,,,,,413.61352559993975,413.630225299974,416.6133243999211,418.61324019997846,high,GS15,01,False,2024-08-08_19h03.32.715,Gratings_vis_devJG_v0.6,2024.1.5,None,2024-08-08 19h03.45.522438 -0400,
82,0,82,0,418.6297591999173,,,,,,,,,418.61353289999533,418.6297591999173,421.6132483999245,423.6130323000252,high,GS15,01,False,2024-08-08_19h03.32.715,Gratings_vis_devJG_v0.6,2024.1.5,None,2024-08-08 19h03.45.522438 -0400,
83,0,83,0,423.62966929993127,,,,,,,,,423.6132953999331,423.62966929993127,426.6133639999898,428.6130397999659,high,GS15,01,False,2024-08-08_19h03.32.715,Gratings_vis_devJG_v0.6,2024.1.5,None,2024-08-08 19h03.45.522438 -0400,
84,0,84,0,428.6297051999718,,,,,,,,,428.6132969999453,428.6297051999718,431.61321510002017,433.61306959996,high,GS15,01,False,2024-08-08_19h03.32.715,Gratings_vis_devJG_v0.6,2024.1.5,None,2024-08-08 19h03.45.522438 -0400,
85,0,85,0,433.6298254999565,,,,,,,,,433.6133275999455,433.6298254999565,436.61316109995823,438.61492119997274,high,GS15,01,False,2024-08-08_19h03.32.715,Gratings_vis_devJG_v0.6,2024.1.5,None,2024-08-08 19h03.45.522438 -0400,
86,0,86,0,438.6296417999547,,,,,,,,,438.6151903999271,438.6296417999547,441.61490899999626,443.6150754999835,high,GS15,01,False,2024-08-08_19h03.32.715,Gratings_vis_devJG_v0.6,2024.1.5,None,2024-08-08 19h03.45.522438 -0400,
87,0,87,0,443.62970970000606,,,,,,,,,443.6153550000163,443.62970970000606,446.613419399946,448.6129785999656,high,GS15,01,False,2024-08-08_19h03.32.715,Gratings_vis_devJG_v0.6,2024.1.5,None,2024-08-08 19h03.45.522438 -0400,
88,0,88,0,448.62962609995157,,,,,,,,,448.6132638999261,448.62962609995157,451.6132132000057,453.61293649999425,high,GS15,01,False,2024-08-08_19h03.32.715,Gratings_vis_devJG_v0.6,2024.1.5,None,2024-08-08 19h03.45.522438 -0400,
89,0,89,0,453.62970169994514,,,,,,,,,453.61318669992033,453.62970169994514,456.6134030999383,458.61299129994586,high,GS15,01,False,2024-08-08_19h03.32.715,Gratings_vis_devJG_v0.6,2024.1.5,None,2024-08-08 19h03.45.522438 -0400,
90,0,90,0,458.63055599993095,,,,,,,,,458.6132763000205,458.63055599993095,461.6135804000078,463.61294479994103,high,GS15,01,False,2024-08-08_19h03.32.715,Gratings_vis_devJG_v0.6,2024.1.5,None,2024-08-08 19h03.45.522438 -0400,
91,0,91,0,463.6294964000117,,,,,,,,,463.6132242999738,463.6294964000117,466.6139195000287,468.61288909998257,high,GS15,01,False,2024-08-08_19h03.32.715,Gratings_vis_devJG_v0.6,2024.1.5,None,2024-08-08 19h03.45.522438 -0400,
92,0,92,0,468.6294617999811,,,,,,,,,468.61314209993,468.6294617999811,471.6141230999492,473.6130959999282,high,GS15,01,False,2024-08-08_19h03.32.715,Gratings_vis_devJG_v0.6,2024.1.5,None,2024-08-08 19h03.45.522438 -0400,
93,0,93,0,473.6295845999848,,,,,,,,,473.613386199926,473.6295845999848,476.6144102999242,478.6128918000031,high,GS15,01,False,2024-08-08_19h03.32.715,Gratings_vis_devJG_v0.6,2024.1.5,None,2024-08-08 19h03.45.522438 -0400,
94,0,94,0,478.6295314999297,,,,,,,,,478.61315819993615,478.6295314999297,481.6148670000257,483.6132234999677,high,GS15,01,False,2024-08-08_19h03.32.715,Gratings_vis_devJG_v0.6,2024.1.5,None,2024-08-08 19h03.45.522438 -0400,
95,0,95,0,483.6297975999769,,,,,,,,,483.6134778999258,483.6297975999769,486.6150641000131,488.613384700031,high,GS15,01,False,2024-08-08_19h03.32.715,Gratings_vis_devJG_v0.6,2024.1.5,None,2024-08-08 19h03.45.522438 -0400,
96,0,96,0,488.63009470002726,,,,,,,,,488.61364460003097,488.63009470002726,491.61547800002154,493.6136610999238,high,GS15,01,False,2024-08-08_19h03.32.715,Gratings_vis_devJG_v0.6,2024.1.5,None,2024-08-08 19h03.45.522438 -0400,
97,0,97,0,493.6302578999894,,,,,,,,,493.6139183000196,493.6302578999894,496.61570560000837,498.6127390000038,high,GS15,01,False,2024-08-08_19h03.32.715,Gratings_vis_devJG_v0.6,2024.1.5,None,2024-08-08 19h03.45.522438 -0400,
98,0,98,0,498.6306821999606,,,,,,,,,498.61299549997784,498.6306821999606,501.6130561999744,503.6127693000017,high,GS15,01,False,2024-08-08_19h03.32.715,Gratings_vis_devJG_v0.6,2024.1.5,None,2024-08-08 19h03.45.522438 -0400,
99,0,99,0,503.6308321999386,,,,,,,,,503.61305269994773,503.6308321999386,506.6132475999184,508.6126957000233,high,GS15,01,False,2024-08-08_19h03.32.715,Gratings_vis_devJG_v0.6,2024.1.5,None,2024-08-08 19h03.45.522438 -0400,
100,0,100,0,508.6294643000001,,,,,,,,,508.6129529000027,508.6294643000001,511.6129626999609,513.6124921999872,high,GS15,01,False,2024-08-08_19h03.32.715,Gratings_vis_devJG_v0.6,2024.1.5,None,2024-08-08 19h03.45.522438 -0400,
101,0,101,0,513.6291322000325,,,,,,,,,513.6127476999536,513.6291322000325,516.6128072999418,518.6124471999938,high,GS15,01,False,2024-08-08_19h03.32.715,Gratings_vis_devJG_v0.6,2024.1.5,None,2024-08-08 19h03.45.522438 -0400,
102,0,102,0,518.629185799975,,,,,,,,,518.6127199999755,518.629185799975,521.6128022000194,523.6125936999451,high,GS15,01,False,2024-08-08_19h03.32.715,Gratings_vis_devJG_v0.6,2024.1.5,None,2024-08-08 19h03.45.522438 -0400,
103,0,103,0,523.6290857000276,,,,,,,,,523.6128556999611,523.6290857000276,526.6129451999441,528.612513500033,high,GS15,01,False,2024-08-08_19h03.32.715,Gratings_vis_devJG_v0.6,2024.1.5,None,2024-08-08 19h03.45.522438 -0400,
104,0,104,0,528.6291329999221,,,,,,,,,528.6127686999971,528.6291329999221,531.61264940002,533.6124528999208,high,GS15,01,False,2024-08-08_19h03.32.715,Gratings_vis_devJG_v0.6,2024.1.5,None,2024-08-08 19h03.45.522438 -0400,
105,0,105,0,533.6291278999997,,,,,,,,,533.6127058999846,533.6291278999997,536.6125709000044,538.6125611999305,high,GS15,01,False,2024-08-08_19h03.32.715,Gratings_vis_devJG_v0.6,2024.1.5,None,2024-08-08 19h03.45.522438 -0400,
106,0,106,0,538.6291187999304,,,,,,,,,538.6128229999449,538.6291187999304,541.6128873999696,543.6124710999429,high,GS15,01,False,2024-08-08_19h03.32.715,Gratings_vis_devJG_v0.6,2024.1.5,None,2024-08-08 19h03.45.522438 -0400,
107,0,107,0,543.6291132000042,,,,,,,,,543.612740600016,543.6291132000042,546.6125474999426,548.6123571000062,high,GS15,01,False,2024-08-08_19h03.32.715,Gratings_vis_devJG_v0.6,2024.1.5,None,2024-08-08 19h03.45.522438 -0400,
108,0,108,0,548.6292208000086,,,,,,,,,548.6126092999475,548.6292208000086,551.6125926999375,553.6123492999468,high,GS15,01,False,2024-08-08_19h03.32.715,Gratings_vis_devJG_v0.6,2024.1.5,None,2024-08-08 19h03.45.522438 -0400,
109,0,109,0,553.6292371000163,,,,,,,,,553.612621899927,553.6292371000163,556.6125223999843,558.6123651999515,high,GS15,01,False,2024-08-08_19h03.32.715,Gratings_vis_devJG_v0.6,2024.1.5,None,2024-08-08 19h03.45.522438 -0400,
110,0,110,0,558.6290393000236,,,,,,,,,558.6126416999614,558.6290393000236,561.6126868999563,563.6122361000162,high,GS15,01,False,2024-08-08_19h03.32.715,Gratings_vis_devJG_v0.6,2024.1.5,None,2024-08-08 19h03.45.522438 -0400,
111,0,111,0,563.6289717999753,,,,,,,,,563.6124869999476,563.6289717999753,566.612536599976,568.6123701999895,high,GS15,01,False,2024-08-08_19h03.32.715,Gratings_vis_devJG_v0.6,2024.1.5,None,2024-08-08 19h03.45.522438 -0400,
112,0,112,0,568.6291570999892,,,,,,,,,568.6126510000322,568.6291570999892,571.6124176000012,573.6123170999344,high,GS15,01,False,2024-08-08_19h03.32.715,Gratings_vis_devJG_v0.6,2024.1.5,None,2024-08-08 19h03.45.522438 -0400,
113,0,113,0,573.628896899987,,,,,,,,,573.6125843999907,573.628896899987,576.6125854999991,578.6122562999371,high,GS15,01,False,2024-08-08_19h03.32.715,Gratings_vis_devJG_v0.6,2024.1.5,None,2024-08-08 19h03.45.522438 -0400,
114,0,114,0,578.6289103999734,,,,,,,,,578.6125110000139,578.6289103999734,581.61250259995,583.6123068999732,high,GS15,01,False,2024-08-08_19h03.32.715,Gratings_vis_devJG_v0.6,2024.1.5,None,2024-08-08 19h03.45.522438 -0400,
115,0,115,0,583.6288958999794,,,,,,,,,583.6125906999223,583.6288958999794,586.6123624999309,588.6122922999784,high,GS15,01,False,2024-08-08_19h03.32.715,Gratings_vis_devJG_v0.6,2024.1.5,None,2024-08-08 19h03.45.522438 -0400,
116,0,116,0,588.6288454999449,,,,,,,,,588.6125577000203,588.6288454999449,591.6124256999465,593.6123331999406,high,GS15,01,False,2024-08-08_19h03.32.715,Gratings_vis_devJG_v0.6,2024.1.5,None,2024-08-08 19h03.45.522438 -0400,
117,0,117,0,593.6288325999631,,,,,,,,,593.6125901999185,593.6288325999631,596.6123515999643,598.6121018999256,high,GS15,01,False,2024-08-08_19h03.32.715,Gratings_vis_devJG_v0.6,2024.1.5,None,2024-08-08 19h03.45.522438 -0400,
118,0,118,0,598.628801099956,,,,,,,,,598.6123577000108,598.628801099956,601.6122895999579,603.6121396999806,high,GS15,01,False,2024-08-08_19h03.32.715,Gratings_vis_devJG_v0.6,2024.1.5,None,2024-08-08 19h03.45.522438 -0400,
119,0,119,0,603.6288641999708,,,,,,,,,603.6124090999365,603.6288641999708,606.6123032999458,608.6120705999201,high,GS15,01,False,2024-08-08_19h03.32.715,Gratings_vis_devJG_v0.6,2024.1.5,None,2024-08-08 19h03.45.522438 -0400,
