trials.thisRepN,trials.thisTrialN,trials.thisN,trials.thisIndex,thisRow.t,notes,nidaqTrigger.started,text_waiting_message.started,key_resp.started,nidaqTrigger.stopped,key_resp.keys,key_resp.rt,key_resp.duration,display_gratings.started,stim_grayScreen.started,stim_grating.started,display_gratings.stopped,Protocol ID,Subject ID,Session ID,Wait for Trigger,date,expName,psychopyVersion,frameRate,expStart,
,,,,,,0.007505399989895523,0.01454040000680834,0.01454040000680834,7.483722099917941,space,7.467028499930166,None,,,,,low,SB04,01,False,2024-08-06_14h38.14.276,Gratings_vis_devJG_v0.6,2024.1.5,None,2024-08-06 14h38.34.208897 -0400,
0,0,0,0,7.588397599989548,,,,,,,,,7.524916999973357,7.588397599989548,10.531294699991122,12.531380599946715,low,SB04,01,False,2024-08-06_14h38.14.276,Gratings_vis_devJG_v0.6,2024.1.5,None,2024-08-06 14h38.34.208897 -0400,
1,0,1,0,12.54803379997611,,,,,,,,,12.531635499908589,12.54803379997611,15.531966299982741,17.531464400002733,low,SB04,01,False,2024-08-06_14h38.14.276,Gratings_vis_devJG_v0.6,2024.1.5,None,2024-08-06 14h38.34.208897 -0400,
2,0,2,0,17.548105499939993,,,,,,,,,17.53172299999278,17.548105499939993,20.531718399957754,22.531533299945295,low,SB04,01,False,2024-08-06_14h38.14.276,Gratings_vis_devJG_v0.6,2024.1.5,None,2024-08-06 14h38.34.208897 -0400,
3,0,3,0,22.548128700000234,,,,,,,,,22.531794299953617,22.548128700000234,25.531626099953428,27.531442199950106,low,SB04,01,False,2024-08-06_14h38.14.276,Gratings_vis_devJG_v0.6,2024.1.5,None,2024-08-06 14h38.34.208897 -0400,
4,0,4,0,27.548084399895743,,,,,,,,,27.531707099988125,27.548084399895743,30.531546599930152,32.531431399984285,low,SB04,01,False,2024-08-06_14h38.14.276,Gratings_vis_devJG_v0.6,2024.1.5,None,2024-08-06 14h38.34.208897 -0400,
5,0,5,0,32.54803889989853,,,,,,,,,32.53169239999261,32.54803889989853,35.53184469998814,37.531629299977794,low,SB04,01,False,2024-08-06_14h38.14.276,Gratings_vis_devJG_v0.6,2024.1.5,None,2024-08-06 14h38.34.208897 -0400,
6,0,6,0,37.548133199918084,,,,,,,,,37.531896799919195,37.548133199918084,40.53145439992659,42.53133149992209,low,SB04,01,False,2024-08-06_14h38.14.276,Gratings_vis_devJG_v0.6,2024.1.5,None,2024-08-06 14h38.34.208897 -0400,
7,0,7,0,42.54809379996732,,,,,,,,,42.53158819989767,42.54809379996732,45.53142629994545,47.53129929990973,low,SB04,01,False,2024-08-06_14h38.14.276,Gratings_vis_devJG_v0.6,2024.1.5,None,2024-08-06 14h38.34.208897 -0400,
8,0,8,0,47.548008299898356,,,,,,,,,47.53160979994573,47.548008299898356,50.53143989993259,52.531300199916586,low,SB04,01,False,2024-08-06_14h38.14.276,Gratings_vis_devJG_v0.6,2024.1.5,None,2024-08-06 14h38.34.208897 -0400,
9,0,9,0,52.54792819998693,,,,,,,,,52.53157170000486,52.54792819998693,55.53139419993386,57.5313565999968,low,SB04,01,False,2024-08-06_14h38.14.276,Gratings_vis_devJG_v0.6,2024.1.5,None,2024-08-06 14h38.34.208897 -0400,
10,0,10,0,57.548111099982634,,,,,,,,,57.53163619991392,57.548111099982634,60.53140569990501,62.5312649999978,low,SB04,01,False,2024-08-06_14h38.14.276,Gratings_vis_devJG_v0.6,2024.1.5,None,2024-08-06 14h38.34.208897 -0400,
11,0,11,0,62.548138799960725,,,,,,,,,62.531526499893516,62.548138799960725,65.53160429990385,67.531212199945,low,SB04,01,False,2024-08-06_14h38.14.276,Gratings_vis_devJG_v0.6,2024.1.5,None,2024-08-06 14h38.34.208897 -0400,
12,0,12,0,67.54784579994157,,,,,,,,,67.53147149994038,67.54784579994157,70.53134889993817,72.53114809992258,low,SB04,01,False,2024-08-06_14h38.14.276,Gratings_vis_devJG_v0.6,2024.1.5,None,2024-08-06 14h38.34.208897 -0400,
13,0,13,0,72.54784199991263,,,,,,,,,72.53139549994376,72.54784199991263,75.53207580000162,77.53117579990067,low,SB04,01,False,2024-08-06_14h38.14.276,Gratings_vis_devJG_v0.6,2024.1.5,None,2024-08-06 14h38.34.208897 -0400,
14,0,14,0,77.54778779996559,,,,,,,,,77.53145729994867,77.54778779996559,80.53157719993033,82.53134629991837,low,SB04,01,False,2024-08-06_14h38.14.276,Gratings_vis_devJG_v0.6,2024.1.5,None,2024-08-06 14h38.34.208897 -0400,
15,0,15,0,82.54781269992236,,,,,,,,,82.53161639999598,82.54781269992236,85.53128509991802,87.53113569994457,low,SB04,01,False,2024-08-06_14h38.14.276,Gratings_vis_devJG_v0.6,2024.1.5,None,2024-08-06 14h38.34.208897 -0400,
16,0,16,0,87.54774989990983,,,,,,,,,87.53139119991101,87.54774989990983,90.53125839994755,92.53110919997562,low,SB04,01,False,2024-08-06_14h38.14.276,Gratings_vis_devJG_v0.6,2024.1.5,None,2024-08-06 14h38.34.208897 -0400,
17,0,17,0,92.5477328998968,,,,,,,,,92.53137320000678,92.5477328998968,95.53121029993054,97.53125060000457,low,SB04,01,False,2024-08-06_14h38.14.276,Gratings_vis_devJG_v0.6,2024.1.5,None,2024-08-06 14h38.34.208897 -0400,
18,0,18,0,97.54773909994401,,,,,,,,,97.53151159989648,97.54773909994401,100.5312222999055,102.53108539991081,low,SB04,01,False,2024-08-06_14h38.14.276,Gratings_vis_devJG_v0.6,2024.1.5,None,2024-08-06 14h38.34.208897 -0400,
19,0,19,0,102.5477305999957,,,,,,,,,102.53137229999993,102.5477305999957,105.53117440000642,107.53117749991361,low,SB04,01,False,2024-08-06_14h38.14.276,Gratings_vis_devJG_v0.6,2024.1.5,None,2024-08-06 14h38.34.208897 -0400,
20,0,20,0,107.5482019999763,,,,,,,,,107.53143809991889,107.5482019999763,110.53114259999711,112.53096909995656,low,SB04,01,False,2024-08-06_14h38.14.276,Gratings_vis_devJG_v0.6,2024.1.5,None,2024-08-06 14h38.34.208897 -0400,
21,0,21,0,112.5482725999318,,,,,,,,,112.53123329998925,112.5482725999318,115.53115119994618,117.53097119997256,low,SB04,01,False,2024-08-06_14h38.14.276,Gratings_vis_devJG_v0.6,2024.1.5,None,2024-08-06 14h38.34.208897 -0400,
22,0,22,0,117.54847659997176,,,,,,,,,117.53122859995347,117.54847659997176,120.53110799996648,122.53091809991747,low,SB04,01,False,2024-08-06_14h38.14.276,Gratings_vis_devJG_v0.6,2024.1.5,None,2024-08-06 14h38.34.208897 -0400,
23,0,23,0,122.5475411999505,,,,,,,,,122.5312103999313,122.5475411999505,125.53113549994305,127.53090669994708,low,SB04,01,False,2024-08-06_14h38.14.276,Gratings_vis_devJG_v0.6,2024.1.5,None,2024-08-06 14h38.34.208897 -0400,
24,0,24,0,127.547545599984,,,,,,,,,127.53115629998501,127.547545599984,130.531236999901,132.53303629998118,low,SB04,01,False,2024-08-06_14h38.14.276,Gratings_vis_devJG_v0.6,2024.1.5,None,2024-08-06 14h38.34.208897 -0400,
25,0,25,0,132.5475566999521,,,,,,,,,132.53331529989373,132.5475566999521,135.5312729999423,137.53301509993616,low,SB04,01,False,2024-08-06_14h38.14.276,Gratings_vis_devJG_v0.6,2024.1.5,None,2024-08-06 14h38.34.208897 -0400,
26,0,26,0,137.54753029998392,,,,,,,,,137.53330279991496,137.54753029998392,140.53100279998034,142.53092079993803,low,SB04,01,False,2024-08-06_14h38.14.276,Gratings_vis_devJG_v0.6,2024.1.5,None,2024-08-06 14h38.34.208897 -0400,
27,0,27,0,142.54763919999823,,,,,,,,,142.5311751998961,142.54763919999823,145.53108989994507,147.53090389992576,low,SB04,01,False,2024-08-06_14h38.14.276,Gratings_vis_devJG_v0.6,2024.1.5,None,2024-08-06 14h38.34.208897 -0400,
28,0,28,0,147.5474231999833,,,,,,,,,147.531183199957,147.5474231999833,150.53124459995888,152.5308398999041,low,SB04,01,False,2024-08-06_14h38.14.276,Gratings_vis_devJG_v0.6,2024.1.5,None,2024-08-06 14h38.34.208897 -0400,
29,0,29,0,152.54751049994957,,,,,,,,,152.53115539997816,152.54751049994957,155.53152169997338,157.53096189990174,low,SB04,01,False,2024-08-06_14h38.14.276,Gratings_vis_devJG_v0.6,2024.1.5,None,2024-08-06 14h38.34.208897 -0400,
30,0,30,0,157.54754579998553,,,,,,,,,157.53121929999907,157.54754579998553,160.5317205999745,162.53073939995375,low,SB04,01,False,2024-08-06_14h38.14.276,Gratings_vis_devJG_v0.6,2024.1.5,None,2024-08-06 14h38.34.208897 -0400,
31,0,31,0,162.54730889992788,,,,,,,,,162.53099609992933,162.54730889992788,165.53200669994112,167.53086649999022,low,SB04,01,False,2024-08-06_14h38.14.276,Gratings_vis_devJG_v0.6,2024.1.5,None,2024-08-06 14h38.34.208897 -0400,
32,0,32,0,167.54764359991532,,,,,,,,,167.53115469997283,167.54764359991532,170.53226999996696,172.5308460999513,low,SB04,01,False,2024-08-06_14h38.14.276,Gratings_vis_devJG_v0.6,2024.1.5,None,2024-08-06 14h38.34.208897 -0400,
33,0,33,0,172.54746469995007,,,,,,,,,172.53110969997942,172.54746469995007,175.53253769990988,177.53116959996987,low,SB04,01,False,2024-08-06_14h38.14.276,Gratings_vis_devJG_v0.6,2024.1.5,None,2024-08-06 14h38.34.208897 -0400,
34,0,34,0,177.5476922999369,,,,,,,,,177.53152600000612,177.5476922999369,180.53283719997853,182.53137250000145,low,SB04,01,False,2024-08-06_14h38.14.276,Gratings_vis_devJG_v0.6,2024.1.5,None,2024-08-06 14h38.34.208897 -0400,
35,0,35,0,182.54799689992797,,,,,,,,,182.53165959997568,182.54799689992797,185.53314959991258,187.53177679993678,low,SB04,01,False,2024-08-06_14h38.14.276,Gratings_vis_devJG_v0.6,2024.1.5,None,2024-08-06 14h38.34.208897 -0400,
36,0,36,0,187.54826789989602,,,,,,,,,187.5320597999962,187.54826789989602,190.5334954999853,192.5318693999434,low,SB04,01,False,2024-08-06_14h38.14.276,Gratings_vis_devJG_v0.6,2024.1.5,None,2024-08-06 14h38.34.208897 -0400,
37,0,37,0,192.54711779998615,,,,,,,,,192.53212669992354,192.54711779998615,195.53109299996868,197.5305979999248,low,SB04,01,False,2024-08-06_14h38.14.276,Gratings_vis_devJG_v0.6,2024.1.5,None,2024-08-06 14h38.34.208897 -0400,
38,0,38,0,197.54726509994362,,,,,,,,,197.5308760999469,197.54726509994362,200.5310058000032,202.53041419992223,low,SB04,01,False,2024-08-06_14h38.14.276,Gratings_vis_devJG_v0.6,2024.1.5,None,2024-08-06 14h38.34.208897 -0400,
39,0,39,0,202.5470350999385,,,,,,,,,202.5306721999077,202.5470350999385,205.5309777999064,207.53043899999466,low,SB04,01,False,2024-08-06_14h38.14.276,Gratings_vis_devJG_v0.6,2024.1.5,None,2024-08-06 14h38.34.208897 -0400,
40,0,40,0,207.54708209994715,,,,,,,,,207.53069199994206,207.54708209994715,210.53089099994395,212.53039119997993,low,SB04,01,False,2024-08-06_14h38.14.276,Gratings_vis_devJG_v0.6,2024.1.5,None,2024-08-06 14h38.34.208897 -0400,
41,0,41,0,212.5469724999275,,,,,,,,,212.53069129993673,212.5469724999275,215.53087569994386,217.5304879999021,low,SB04,01,False,2024-08-06_14h38.14.276,Gratings_vis_devJG_v0.6,2024.1.5,None,2024-08-06 14h38.34.208897 -0400,
42,0,42,0,217.54699419997633,,,,,,,,,217.53079479990993,217.54699419997633,220.5305860999506,222.53047339990735,low,SB04,01,False,2024-08-06_14h38.14.276,Gratings_vis_devJG_v0.6,2024.1.5,None,2024-08-06 14h38.34.208897 -0400,
43,0,43,0,222.54709779995028,,,,,,,,,222.53075339994393,222.54709779995028,225.530797699932,227.5307353999233,low,SB04,01,False,2024-08-06_14h38.14.276,Gratings_vis_devJG_v0.6,2024.1.5,None,2024-08-06 14h38.34.208897 -0400,
44,0,44,0,227.54693919990677,,,,,,,,,227.53121229994576,227.54693919990677,230.53042729990557,232.53033619991038,low,SB04,01,False,2024-08-06_14h38.14.276,Gratings_vis_devJG_v0.6,2024.1.5,None,2024-08-06 14h38.34.208897 -0400,
45,0,45,0,232.5469947999809,,,,,,,,,232.53060089994688,232.5469947999809,235.53072829998564,237.53033399989363,low,SB04,01,False,2024-08-06_14h38.14.276,Gratings_vis_devJG_v0.6,2024.1.5,None,2024-08-06 14h38.34.208897 -0400,
46,0,46,0,237.5469983998919,,,,,,,,,237.53062199999113,237.5469983998919,240.53046119993087,242.53030499990564,low,SB04,01,False,2024-08-06_14h38.14.276,Gratings_vis_devJG_v0.6,2024.1.5,None,2024-08-06 14h38.34.208897 -0400,
47,0,47,0,242.54704429989215,,,,,,,,,242.5305650999071,242.54704429989215,245.53053449990693,247.5302610999206,low,SB04,01,False,2024-08-06_14h38.14.276,Gratings_vis_devJG_v0.6,2024.1.5,None,2024-08-06 14h38.34.208897 -0400,
48,0,48,0,247.5469305999577,,,,,,,,,247.5305473000044,247.5469305999577,250.53037880000193,252.5302116998937,low,SB04,01,False,2024-08-06_14h38.14.276,Gratings_vis_devJG_v0.6,2024.1.5,None,2024-08-06 14h38.34.208897 -0400,
49,0,49,0,252.54713949991856,,,,,,,,,252.5304828999797,252.54713949991856,255.530335099902,257.5302928999299,low,SB04,01,False,2024-08-06_14h38.14.276,Gratings_vis_devJG_v0.6,2024.1.5,None,2024-08-06 14h38.34.208897 -0400,
50,0,50,0,257.54707949992735,,,,,,,,,257.5305621000007,257.54707949992735,260.5303547999356,262.53022069996223,low,SB04,01,False,2024-08-06_14h38.14.276,Gratings_vis_devJG_v0.6,2024.1.5,None,2024-08-06 14h38.34.208897 -0400,
51,0,51,0,262.5468710999703,,,,,,,,,262.53050009999424,262.5468710999703,265.53034279996064,267.53015859995503,low,SB04,01,False,2024-08-06_14h38.14.276,Gratings_vis_devJG_v0.6,2024.1.5,None,2024-08-06 14h38.34.208897 -0400,
52,0,52,0,267.54679029993713,,,,,,,,,267.53042059997097,267.54679029993713,270.53031169995666,272.5301216999069,low,SB04,01,False,2024-08-06_14h38.14.276,Gratings_vis_devJG_v0.6,2024.1.5,None,2024-08-06 14h38.34.208897 -0400,
53,0,53,0,272.54676339996513,,,,,,,,,272.53038959996775,272.54676339996513,275.53045319998637,277.5300920999143,low,SB04,01,False,2024-08-06_14h38.14.276,Gratings_vis_devJG_v0.6,2024.1.5,None,2024-08-06 14h38.34.208897 -0400,
54,0,54,0,277.54676469997503,,,,,,,,,277.53037719998974,277.54676469997503,280.5305626000045,282.53013219998684,low,SB04,01,False,2024-08-06_14h38.14.276,Gratings_vis_devJG_v0.6,2024.1.5,None,2024-08-06 14h38.34.208897 -0400,
55,0,55,0,282.5467460999498,,,,,,,,,282.5304136999184,282.5467460999498,285.5302189999493,287.5300947999349,low,SB04,01,False,2024-08-06_14h38.14.276,Gratings_vis_devJG_v0.6,2024.1.5,None,2024-08-06 14h38.34.208897 -0400,
56,0,56,0,287.5467015999602,,,,,,,,,287.5303529999219,287.5467015999602,290.53027220000513,292.530105899903,low,SB04,01,False,2024-08-06_14h38.14.276,Gratings_vis_devJG_v0.6,2024.1.5,None,2024-08-06 14h38.34.208897 -0400,
57,0,57,0,292.546882799943,,,,,,,,,292.5303679999197,292.546882799943,295.5301831999095,297.53003699996043,low,SB04,01,False,2024-08-06_14h38.14.276,Gratings_vis_devJG_v0.6,2024.1.5,None,2024-08-06 14h38.34.208897 -0400,
58,0,58,0,297.54670819989406,,,,,,,,,297.53030240000226,297.54670819989406,300.5301774999825,302.5302370999707,low,SB04,01,False,2024-08-06_14h38.14.276,Gratings_vis_devJG_v0.6,2024.1.5,None,2024-08-06 14h38.34.208897 -0400,
59,0,59,0,302.5467424999224,,,,,,,,,302.5305468000006,302.5467424999224,305.5301979999058,307.5299512000056,low,SB04,01,False,2024-08-06_14h38.14.276,Gratings_vis_devJG_v0.6,2024.1.5,None,2024-08-06 14h38.34.208897 -0400,
60,0,60,0,307.54661839990877,,,,,,,,,307.53021469991654,307.54661839990877,310.5304326999467,312.5299154999666,low,SB04,01,False,2024-08-06_14h38.14.276,Gratings_vis_devJG_v0.6,2024.1.5,None,2024-08-06 14h38.34.208897 -0400,
61,0,61,0,312.5465963999741,,,,,,,,,312.5301757999696,312.5465963999741,315.53037900000345,317.5298947999254,low,SB04,01,False,2024-08-06_14h38.14.276,Gratings_vis_devJG_v0.6,2024.1.5,None,2024-08-06 14h38.34.208897 -0400,
62,0,62,0,317.5467799999751,,,,,,,,,317.5301505998941,317.5467799999751,320.5302533999784,322.5299054000061,low,SB04,01,False,2024-08-06_14h38.14.276,Gratings_vis_devJG_v0.6,2024.1.5,None,2024-08-06 14h38.34.208897 -0400,
63,0,63,0,322.54655410000123,,,,,,,,,322.53016429999843,322.54655410000123,325.53011069993954,327.52990139997564,low,SB04,01,False,2024-08-06_14h38.14.276,Gratings_vis_devJG_v0.6,2024.1.5,None,2024-08-06 14h38.34.208897 -0400,
64,0,64,0,327.54648829996586,,,,,,,,,327.53019139997195,327.54648829996586,330.52995209989604,332.5298341999296,low,SB04,01,False,2024-08-06_14h38.14.276,Gratings_vis_devJG_v0.6,2024.1.5,None,2024-08-06 14h38.34.208897 -0400,
65,0,65,0,332.5464824999217,,,,,,,,,332.5301273999503,332.5464824999217,335.53038599994034,337.5298724999884,low,SB04,01,False,2024-08-06_14h38.14.276,Gratings_vis_devJG_v0.6,2024.1.5,None,2024-08-06 14h38.34.208897 -0400,
66,0,66,0,337.5465189999668,,,,,,,,,337.5301320999861,337.5465189999668,340.5299211998936,342.5297994998982,low,SB04,01,False,2024-08-06_14h38.14.276,Gratings_vis_devJG_v0.6,2024.1.5,None,2024-08-06 14h38.34.208897 -0400,
67,0,67,0,342.54639599996153,,,,,,,,,342.5300662999507,342.54639599996153,345.5299291999545,347.5298060999485,low,SB04,01,False,2024-08-06_14h38.14.276,Gratings_vis_devJG_v0.6,2024.1.5,None,2024-08-06 14h38.34.208897 -0400,
68,0,68,0,347.54670249996707,,,,,,,,,347.53009359992575,347.54670249996707,350.5298843999626,352.5297834998928,low,SB04,01,False,2024-08-06_14h38.14.276,Gratings_vis_devJG_v0.6,2024.1.5,None,2024-08-06 14h38.34.208897 -0400,
69,0,69,0,352.54646219999995,,,,,,,,,352.53003049991094,352.54646219999995,355.52985329995863,357.52969130000565,low,SB04,01,False,2024-08-06_14h38.14.276,Gratings_vis_devJG_v0.6,2024.1.5,None,2024-08-06 14h38.34.208897 -0400,
70,0,70,0,357.5463755999226,,,,,,,,,357.5299645999912,357.5463755999226,360.529856499983,362.5297087999061,low,SB04,01,False,2024-08-06_14h38.14.276,Gratings_vis_devJG_v0.6,2024.1.5,None,2024-08-06 14h38.34.208897 -0400,
71,0,71,0,362.54632759990636,,,,,,,,,362.5299964000005,362.54632759990636,365.52984239999205,367.5296857999638,low,SB04,01,False,2024-08-06_14h38.14.276,Gratings_vis_devJG_v0.6,2024.1.5,None,2024-08-06 14h38.34.208897 -0400,
72,0,72,0,367.546335299965,,,,,,,,,367.5299472999759,367.546335299965,370.52982039994095,372.52966799994465,low,SB04,01,False,2024-08-06_14h38.14.276,Gratings_vis_devJG_v0.6,2024.1.5,None,2024-08-06 14h38.34.208897 -0400,
73,0,73,0,372.54635560000315,,,,,,,,,372.5299333999865,372.54635560000315,375.52980669995304,377.529629800003,low,SB04,01,False,2024-08-06_14h38.14.276,Gratings_vis_devJG_v0.6,2024.1.5,None,2024-08-06 14h38.34.208897 -0400,
74,0,74,0,377.5463002999313,,,,,,,,,377.52988509996794,377.5463002999313,380.52975359989796,382.5297263999237,low,SB04,01,False,2024-08-06_14h38.14.276,Gratings_vis_devJG_v0.6,2024.1.5,None,2024-08-06 14h38.34.208897 -0400,
75,0,75,0,382.546293899999,,,,,,,,,382.5299884999404,382.546293899999,385.53114609990735,387.52963069989346,low,SB04,01,False,2024-08-06_14h38.14.276,Gratings_vis_devJG_v0.6,2024.1.5,None,2024-08-06 14h38.34.208897 -0400,
76,0,76,0,387.54634699993767,,,,,,,,,387.52990139997564,387.54634699993767,390.53059969993774,392.5296523999423,low,SB04,01,False,2024-08-06_14h38.14.276,Gratings_vis_devJG_v0.6,2024.1.5,None,2024-08-06 14h38.34.208897 -0400,
77,0,77,0,392.54616179992445,,,,,,,,,392.52995569992345,392.54616179992445,395.5300510999514,397.52956689998973,low,SB04,01,False,2024-08-06_14h38.14.276,Gratings_vis_devJG_v0.6,2024.1.5,None,2024-08-06 14h38.34.208897 -0400,
78,0,78,0,397.54673199995887,,,,,,,,,397.5298412999837,397.54673199995887,400.5297889999347,402.529658799991,low,SB04,01,False,2024-08-06_14h38.14.276,Gratings_vis_devJG_v0.6,2024.1.5,None,2024-08-06 14h38.34.208897 -0400,
79,0,79,0,402.5461243999889,,,,,,,,,402.52995519991964,402.5461243999889,405.52962509996723,407.53054149996024,low,SB04,01,False,2024-08-06_14h38.14.276,Gratings_vis_devJG_v0.6,2024.1.5,None,2024-08-06 14h38.34.208897 -0400,
80,0,80,0,407.54648259992246,,,,,,,,,407.53080869989935,407.54648259992246,410.5296196999261,412.5303340998944,low,SB04,01,False,2024-08-06_14h38.14.276,Gratings_vis_devJG_v0.6,2024.1.5,None,2024-08-06 14h38.34.208897 -0400,
81,0,81,0,412.5461174999364,,,,,,,,,412.53059320000466,412.5461174999364,415.529577099951,417.52935209998395,low,SB04,01,False,2024-08-06_14h38.14.276,Gratings_vis_devJG_v0.6,2024.1.5,None,2024-08-06 14h38.34.208897 -0400,
82,0,82,0,417.54737779998686,,,,,,,,,417.5296175999101,417.54737779998686,420.5295069999993,422.52941209997516,low,SB04,01,False,2024-08-06_14h38.14.276,Gratings_vis_devJG_v0.6,2024.1.5,None,2024-08-06 14h38.34.208897 -0400,
83,0,83,0,422.54734339995775,,,,,,,,,422.52966129989363,422.54734339995775,425.52948819997255,427.5293682999909,low,SB04,01,False,2024-08-06_14h38.14.276,Gratings_vis_devJG_v0.6,2024.1.5,None,2024-08-06 14h38.34.208897 -0400,
84,0,84,0,427.54763679997995,,,,,,,,,427.52966229990125,427.54763679997995,430.5294496999122,432.52935619989876,low,SB04,01,False,2024-08-06_14h38.14.276,Gratings_vis_devJG_v0.6,2024.1.5,None,2024-08-06 14h38.34.208897 -0400,
85,0,85,0,432.5459466999164,,,,,,,,,432.5296505999286,432.5459466999164,435.52947139996104,437.52935779991094,low,SB04,01,False,2024-08-06_14h38.14.276,Gratings_vis_devJG_v0.6,2024.1.5,None,2024-08-06 14h38.34.208897 -0400,
86,0,86,0,437.5459466999164,,,,,,,,,437.5296325999079,437.5459466999164,440.5296416999772,442.5295777999563,low,SB04,01,False,2024-08-06_14h38.14.276,Gratings_vis_devJG_v0.6,2024.1.5,None,2024-08-06 14h38.34.208897 -0400,
87,0,87,0,442.5459034999367,,,,,,,,,442.52985399996396,442.5459034999367,445.5297123999335,447.5295086998958,low,SB04,01,False,2024-08-06_14h38.14.276,Gratings_vis_devJG_v0.6,2024.1.5,None,2024-08-06 14h38.34.208897 -0400,
88,0,88,0,447.5459257999901,,,,,,,,,447.5297752999468,447.5459257999901,450.52987829991616,452.52932589990087,low,SB04,01,False,2024-08-06_14h38.14.276,Gratings_vis_devJG_v0.6,2024.1.5,None,2024-08-06 14h38.34.208897 -0400,
89,0,89,0,452.5459574999986,,,,,,,,,452.5296080999542,452.5459574999986,455.53018829994835,457.52943489991594,low,SB04,01,False,2024-08-06_14h38.14.276,Gratings_vis_devJG_v0.6,2024.1.5,None,2024-08-06 14h38.34.208897 -0400,
90,0,90,0,457.5459714999888,,,,,,,,,457.52970009995624,457.5459714999888,460.5304119999055,462.52928269992117,low,SB04,01,False,2024-08-06_14h38.14.276,Gratings_vis_devJG_v0.6,2024.1.5,None,2024-08-06 14h38.34.208897 -0400,
91,0,91,0,462.54581039992627,,,,,,,,,462.52955239999574,462.54581039992627,465.5322669999441,467.5292512999149,low,SB04,01,False,2024-08-06_14h38.14.276,Gratings_vis_devJG_v0.6,2024.1.5,None,2024-08-06 14h38.34.208897 -0400,
92,0,92,0,467.54651259991806,,,,,,,,,467.5295025999658,467.54651259991806,470.5310131999431,472.52952240000013,low,SB04,01,False,2024-08-06_14h38.14.276,Gratings_vis_devJG_v0.6,2024.1.5,None,2024-08-06 14h38.34.208897 -0400,
93,0,93,0,472.5461756999139,,,,,,,,,472.52977279992774,472.5461756999139,475.53129929990973,477.529823299963,low,SB04,01,False,2024-08-06_14h38.14.276,Gratings_vis_devJG_v0.6,2024.1.5,None,2024-08-06 14h38.34.208897 -0400,
94,0,94,0,477.5464229999343,,,,,,,,,477.53010779991746,477.5464229999343,480.5316053999122,482.5301444999641,low,SB04,01,False,2024-08-06_14h38.14.276,Gratings_vis_devJG_v0.6,2024.1.5,None,2024-08-06 14h38.34.208897 -0400,
95,0,95,0,482.5466777998954,,,,,,,,,482.53040199994575,482.5466777998954,485.53191789996345,487.5304108998971,low,SB04,01,False,2024-08-06_14h38.14.276,Gratings_vis_devJG_v0.6,2024.1.5,None,2024-08-06 14h38.34.208897 -0400,
96,0,96,0,487.5470024999231,,,,,,,,,487.5306699000066,487.5470024999231,490.52941550000105,492.52898939989973,low,SB04,01,False,2024-08-06_14h38.14.276,Gratings_vis_devJG_v0.6,2024.1.5,None,2024-08-06 14h38.34.208897 -0400,
97,0,97,0,492.5455846999539,,,,,,,,,492.5292564999545,492.5455846999539,495.5290926999878,497.52893039991613,low,SB04,01,False,2024-08-06_14h38.14.276,Gratings_vis_devJG_v0.6,2024.1.5,None,2024-08-06 14h38.34.208897 -0400,
98,0,98,0,497.54555149993394,,,,,,,,,497.5292284999741,497.54555149993394,500.5297133999411,502.52911249990575,low,SB04,01,False,2024-08-06_14h38.14.276,Gratings_vis_devJG_v0.6,2024.1.5,None,2024-08-06 14h38.34.208897 -0400,
99,0,99,0,502.5459256999893,,,,,,,,,502.529400600004,502.5459256999893,505.5293508999748,507.52886029996444,low,SB04,01,False,2024-08-06_14h38.14.276,Gratings_vis_devJG_v0.6,2024.1.5,None,2024-08-06 14h38.34.208897 -0400,
100,0,100,0,507.54545059998054,,,,,,,,,507.52911849995144,507.54545059998054,510.529283199925,512.5289050999563,low,SB04,01,False,2024-08-06_14h38.14.276,Gratings_vis_devJG_v0.6,2024.1.5,None,2024-08-06 14h38.34.208897 -0400,
101,0,101,0,512.5454170999583,,,,,,,,,512.5291576999007,512.5454170999583,515.5289650999475,517.5293416999048,low,SB04,01,False,2024-08-06_14h38.14.276,Gratings_vis_devJG_v0.6,2024.1.5,None,2024-08-06 14h38.34.208897 -0400,
102,0,102,0,517.5455021999078,,,,,,,,,517.5295935999602,517.5455021999078,520.5290500998963,522.5288412999362,low,SB04,01,False,2024-08-06_14h38.14.276,Gratings_vis_devJG_v0.6,2024.1.5,None,2024-08-06 14h38.34.208897 -0400,
103,0,103,0,522.5454903999344,,,,,,,,,522.5290949000046,522.5454903999344,525.5290029000025,527.5290885999566,low,SB04,01,False,2024-08-06_14h38.14.276,Gratings_vis_devJG_v0.6,2024.1.5,None,2024-08-06 14h38.34.208897 -0400,
104,0,104,0,527.5455714999698,,,,,,,,,527.5296114999801,527.5455714999698,530.5289460999193,532.5288047000067,low,SB04,01,False,2024-08-06_14h38.14.276,Gratings_vis_devJG_v0.6,2024.1.5,None,2024-08-06 14h38.34.208897 -0400,
105,0,105,0,532.5454425999196,,,,,,,,,532.5290696999291,532.5454425999196,535.5292571999598,537.5285692999605,low,SB04,01,False,2024-08-06_14h38.14.276,Gratings_vis_devJG_v0.6,2024.1.5,None,2024-08-06 14h38.34.208897 -0400,
106,0,106,0,537.5459148999071,,,,,,,,,537.5288319999818,537.5459148999071,540.529195799958,542.5287441998953,low,SB04,01,False,2024-08-06_14h38.14.276,Gratings_vis_devJG_v0.6,2024.1.5,None,2024-08-06 14h38.34.208897 -0400,
107,0,107,0,542.5453675999306,,,,,,,,,542.5290071999189,542.5453675999306,545.5287799999351,547.5286790999817,low,SB04,01,False,2024-08-06_14h38.14.276,Gratings_vis_devJG_v0.6,2024.1.5,None,2024-08-06 14h38.34.208897 -0400,
108,0,108,0,547.5453800999094,,,,,,,,,547.5289683999727,547.5453800999094,550.5287354999455,552.528648699983,low,SB04,01,False,2024-08-06_14h38.14.276,Gratings_vis_devJG_v0.6,2024.1.5,None,2024-08-06 14h38.34.208897 -0400,
109,0,109,0,552.5453341999091,,,,,,,,,552.5289098999929,552.5453341999091,555.529081699904,557.5287532999646,low,SB04,01,False,2024-08-06_14h38.14.276,Gratings_vis_devJG_v0.6,2024.1.5,None,2024-08-06 14h38.34.208897 -0400,
110,0,110,0,557.5452904999256,,,,,,,,,557.5290256999433,557.5452904999256,560.5288489999948,562.528552899952,low,SB04,01,False,2024-08-06_14h38.14.276,Gratings_vis_devJG_v0.6,2024.1.5,None,2024-08-06 14h38.34.208897 -0400,
111,0,111,0,562.5452687999932,,,,,,,,,562.528810699936,562.5452687999932,565.5290002999827,567.5286223998992,low,SB04,01,False,2024-08-06_14h38.14.276,Gratings_vis_devJG_v0.6,2024.1.5,None,2024-08-06 14h38.34.208897 -0400,
112,0,112,0,567.5452420999063,,,,,,,,,567.5289120998932,567.5452420999063,570.5287191999378,572.5286029999843,low,SB04,01,False,2024-08-06_14h38.14.276,Gratings_vis_devJG_v0.6,2024.1.5,None,2024-08-06 14h38.34.208897 -0400,
113,0,113,0,572.5452277999138,,,,,,,,,572.5288765999721,572.5452277999138,575.5287102999864,577.528658599942,low,SB04,01,False,2024-08-06_14h38.14.276,Gratings_vis_devJG_v0.6,2024.1.5,None,2024-08-06 14h38.34.208897 -0400,
114,0,114,0,577.545231099939,,,,,,,,,577.5289136999054,577.545231099939,580.528698299895,582.5286096999189,low,SB04,01,False,2024-08-06_14h38.14.276,Gratings_vis_devJG_v0.6,2024.1.5,None,2024-08-06 14h38.34.208897 -0400,
115,0,115,0,582.5452609999338,,,,,,,,,582.5288897999562,582.5452609999338,585.5286736999406,587.5284990998916,low,SB04,01,False,2024-08-06_14h38.14.276,Gratings_vis_devJG_v0.6,2024.1.5,None,2024-08-06 14h38.34.208897 -0400,
116,0,116,0,587.5451754999813,,,,,,,,,587.5287570999935,587.5451754999813,590.5289873000002,592.5286137999501,low,SB04,01,False,2024-08-06_14h38.14.276,Gratings_vis_devJG_v0.6,2024.1.5,None,2024-08-06 14h38.34.208897 -0400,
117,0,117,0,592.5451450999826,,,,,,,,,592.5288780999836,592.5451450999826,595.5289523999672,597.5284851999022,low,SB04,01,False,2024-08-06_14h38.14.276,Gratings_vis_devJG_v0.6,2024.1.5,None,2024-08-06 14h38.34.208897 -0400,
118,0,118,0,597.5451035998994,,,,,,,,,597.5287835999625,597.5451035998994,600.5285389999626,602.5284426999278,low,SB04,01,False,2024-08-06_14h38.14.276,Gratings_vis_devJG_v0.6,2024.1.5,None,2024-08-06 14h38.34.208897 -0400,
119,0,119,0,602.5453670999268,,,,,,,,,602.5287366999546,602.5453670999268,605.5286142999539,607.5284146999475,low,SB04,01,False,2024-08-06_14h38.14.276,Gratings_vis_devJG_v0.6,2024.1.5,None,2024-08-06 14h38.34.208897 -0400,
