trials.thisRepN,trials.thisTrialN,trials.thisN,trials.thisIndex,thisRow.t,notes,nidaqTrigger.started,text_waiting_message.started,key_resp.started,nidaqTrigger.stopped,key_resp.keys,key_resp.rt,key_resp.duration,display_gratings.started,stim_grayScreen.started,stim_grating.started,stim_grayScreen.stopped,stim_grating.stopped,display_gratings.stopped,Protocol ID,Subject ID,Session ID,Wait for Trigger,date,expName,psychopyVersion,frameRate,expStart,
,,,,,,0.00618130003567785,0.01744890003465116,0.01744890003465116,7.369395700050518,space,7.349834499997087,None,,,,,,,low,SB10,01,False,2024-08-06_15h43.22.020,Gratings_vis_devJG_v0.6,2024.1.5,None,2024-08-06 15h43.30.635179 -0400,
0,0,0,0,7.423162600025535,,,,,,,,,7.420731900027022,7.423162600025535,10.433828999986872,12.417338300030679,12.417338300030679,12.401364700053819,low,SB10,01,False,2024-08-06_15h43.22.020,Gratings_vis_devJG_v0.6,2024.1.5,None,2024-08-06 15h43.30.635179 -0400,
1,0,1,0,12.417338300030679,,,,,,,,,12.401635600021109,12.434005700051785,15.434330600081012,17.417411600006744,17.417411600006744,17.400963800027966,low,SB10,01,False,2024-08-06_15h43.22.020,Gratings_vis_devJG_v0.6,2024.1.5,None,2024-08-06 15h43.30.635179 -0400,
2,0,2,0,17.417411600006744,,,,,,,,,17.401224700035527,17.434093300020322,20.434316100087017,22.417415200034156,22.417415200034156,22.40096960007213,low,SB10,01,False,2024-08-06_15h43.22.020,Gratings_vis_devJG_v0.6,2024.1.5,None,2024-08-06 15h43.30.635179 -0400,
3,0,3,0,22.417415200034156,,,,,,,,,22.40123499999754,22.434072399977595,25.434376200078987,27.417460400029086,27.417460400029086,27.40088710002601,low,SB10,01,False,2024-08-06_15h43.22.020,Gratings_vis_devJG_v0.6,2024.1.5,None,2024-08-06 15h43.30.635179 -0400,
4,0,4,0,27.417460400029086,,,,,,,,,27.401146300020628,27.43414730008226,30.434268700075336,32.41734749998432,32.41734749998432,32.40127590007614,low,SB10,01,False,2024-08-06_15h43.22.020,Gratings_vis_devJG_v0.6,2024.1.5,None,2024-08-06 15h43.30.635179 -0400,
5,0,5,0,32.41734749998432,,,,,,,,,32.40151690004859,32.43403020000551,35.43423310003709,37.41744320001453,37.41744320001453,37.400980700040236,low,SB10,01,False,2024-08-06_15h43.22.020,Gratings_vis_devJG_v0.6,2024.1.5,None,2024-08-06 15h43.30.635179 -0400,
6,0,6,0,37.41744320001453,,,,,,,,,37.40148310002405,37.43405140005052,40.434286599978805,42.417386800050735,42.417386800050735,42.40087020001374,low,SB10,01,False,2024-08-06_15h43.22.020,Gratings_vis_devJG_v0.6,2024.1.5,None,2024-08-06 15h43.30.635179 -0400,
7,0,7,0,42.417386800050735,,,,,,,,,42.40113420004491,42.43403640005272,45.434107000008225,47.4172569999937,47.4172569999937,47.40084380004555,low,SB10,01,False,2024-08-06_15h43.22.020,Gratings_vis_devJG_v0.6,2024.1.5,None,2024-08-06 15h43.30.635179 -0400,
8,0,8,0,47.4172569999937,,,,,,,,,47.40109270007815,47.43391000002157,50.4174301000312,52.41723230003845,52.41723230003845,52.4021122000413,low,SB10,01,False,2024-08-06_15h43.22.020,Gratings_vis_devJG_v0.6,2024.1.5,None,2024-08-06 15h43.30.635179 -0400,
9,0,9,0,52.41723230003845,,,,,,,,,52.40235210000537,52.43391370004974,55.434099100064486,57.41718290001154,57.41718290001154,57.401075300062075,low,SB10,01,False,2024-08-06_15h43.22.020,Gratings_vis_devJG_v0.6,2024.1.5,None,2024-08-06 15h43.30.635179 -0400,
10,0,10,0,57.41718290001154,,,,,,,,,57.40131690003909,57.43386069999542,60.43420630006585,62.417846300057136,62.417846300057136,62.40090830007102,low,SB10,01,False,2024-08-06_15h43.22.020,Gratings_vis_devJG_v0.6,2024.1.5,None,2024-08-06 15h43.30.635179 -0400,
11,0,11,0,62.417846300057136,,,,,,,,,62.40115450008307,62.43383029999677,65.43401580001228,67.41799950005952,67.41799950005952,67.40078630007338,low,SB10,01,False,2024-08-06_15h43.22.020,Gratings_vis_devJG_v0.6,2024.1.5,None,2024-08-06 15h43.30.635179 -0400,
12,0,12,0,67.41799950005952,,,,,,,,,67.40105069999117,67.43395800003782,70.43598920002114,72.41782710002735,72.41782710002735,72.40167769999243,low,SB10,01,False,2024-08-06_15h43.22.020,Gratings_vis_devJG_v0.6,2024.1.5,None,2024-08-06 15h43.30.635179 -0400,
13,0,13,0,72.41782710002735,,,,,,,,,72.4019280000357,72.43486150004901,75.43438630003948,77.41710249998141,77.41710249998141,77.40178700000979,low,SB10,01,False,2024-08-06_15h43.22.020,Gratings_vis_devJG_v0.6,2024.1.5,None,2024-08-06 15h43.30.635179 -0400,
14,0,14,0,77.41710249998141,,,,,,,,,77.40206240001135,77.43382510007359,80.41741080000065,82.4186368000228,82.4186368000228,82.40103690000251,low,SB10,01,False,2024-08-06_15h43.22.020,Gratings_vis_devJG_v0.6,2024.1.5,None,2024-08-06 15h43.30.635179 -0400,
15,0,15,0,82.4186368000228,,,,,,,,,82.40130410005804,82.43539270001929,85.43418840004597,87.41878980002366,87.41878980002366,87.4005926999962,low,SB10,01,False,2024-08-06_15h43.22.020,Gratings_vis_devJG_v0.6,2024.1.5,None,2024-08-06 15h43.30.635179 -0400,
16,0,16,0,87.41878980002366,,,,,,,,,87.40083390008658,87.43570809997618,90.4338820000412,92.419134600088,92.419134600088,92.40075530007016,low,SB10,01,False,2024-08-06_15h43.22.020,Gratings_vis_devJG_v0.6,2024.1.5,None,2024-08-06 15h43.30.635179 -0400,
17,0,17,0,92.419134600088,,,,,,,,,92.401007700013,92.43570520007052,95.4338727000868,97.41701900004409,97.41701900004409,97.40069899999071,low,SB10,01,False,2024-08-06_15h43.22.020,Gratings_vis_devJG_v0.6,2024.1.5,None,2024-08-06 15h43.30.635179 -0400,
18,0,18,0,97.41701900004409,,,,,,,,,97.4009632000234,97.43383310001809,100.43414370005485,102.41698280000128,102.41698280000128,102.40064320003148,low,SB10,01,False,2024-08-06_15h43.22.020,Gratings_vis_devJG_v0.6,2024.1.5,None,2024-08-06 15h43.30.635179 -0400,
19,0,19,0,102.41698280000128,,,,,,,,,102.40090880007483,102.43376120005269,105.43417530006263,107.41690449998714,107.41690449998714,107.40052080003079,low,SB10,01,False,2024-08-06_15h43.22.020,Gratings_vis_devJG_v0.6,2024.1.5,None,2024-08-06 15h43.30.635179 -0400,
20,0,20,0,107.41690449998714,,,,,,,,,107.40076810005121,107.43372670002282,110.43430900003295,112.41697160003241,112.41697160003241,112.40046120004263,low,SB10,01,False,2024-08-06_15h43.22.020,Gratings_vis_devJG_v0.6,2024.1.5,None,2024-08-06 15h43.30.635179 -0400,
21,0,21,0,112.41697160003241,,,,,,,,,112.40071519999765,112.43357640004251,115.43462299997918,117.41695620003156,117.41695620003156,117.40052020002622,low,SB10,01,False,2024-08-06_15h43.22.020,Gratings_vis_devJG_v0.6,2024.1.5,None,2024-08-06 15h43.30.635179 -0400,
22,0,22,0,117.41695620003156,,,,,,,,,117.4007684000535,117.43358050007373,120.43485419999342,122.41704540001228,122.41704540001228,122.40055979997851,low,SB10,01,False,2024-08-06_15h43.22.020,Gratings_vis_devJG_v0.6,2024.1.5,None,2024-08-06 15h43.30.635179 -0400,
23,0,23,0,122.41704540001228,,,,,,,,,122.4008068999974,122.43356959999073,125.4352152000647,127.41703240002971,127.41703240002971,127.40054579998832,low,SB10,01,False,2024-08-06_15h43.22.020,Gratings_vis_devJG_v0.6,2024.1.5,None,2024-08-06 15h43.30.635179 -0400,
24,0,24,0,127.41703240002971,,,,,,,,,127.40079019998666,127.4336957000196,130.43549609999172,132.41724129999056,132.41724129999056,132.40115020005032,low,SB10,01,False,2024-08-06_15h43.22.020,Gratings_vis_devJG_v0.6,2024.1.5,None,2024-08-06 15h43.30.635179 -0400,
25,0,25,0,132.41724129999056,,,,,,,,,132.4014072000282,132.43390130007174,135.41907010006253,137.41746640007477,137.41746640007477,137.40107480005827,low,SB10,01,False,2024-08-06_15h43.22.020,Gratings_vis_devJG_v0.6,2024.1.5,None,2024-08-06 15h43.30.635179 -0400,
26,0,26,0,137.41746640007477,,,,,,,,,137.40132350008935,137.43422140006442,140.4194324000273,142.41785540001,142.41785540001,142.40146550000645,low,SB10,01,False,2024-08-06_15h43.22.020,Gratings_vis_devJG_v0.6,2024.1.5,None,2024-08-06 15h43.30.635179 -0400,
27,0,27,0,142.41785540001,,,,,,,,,142.40171670005657,142.4344509000657,145.41972640005406,147.41665949998423,147.41665949998423,147.40162969997618,low,SB10,01,False,2024-08-06_15h43.22.020,Gratings_vis_devJG_v0.6,2024.1.5,None,2024-08-06 15h43.30.635179 -0400,
28,0,28,0,147.41665949998423,,,,,,,,,147.4018871000735,147.4333446000237,150.43389790004585,152.4166455999948,152.4166455999948,152.40045960003044,low,SB10,01,False,2024-08-06_15h43.22.020,Gratings_vis_devJG_v0.6,2024.1.5,None,2024-08-06 15h43.30.635179 -0400,
29,0,29,0,152.4166455999948,,,,,,,,,152.40071210009046,152.433742800029,155.43350300006568,157.41666880005505,157.41666880005505,157.4011490000412,low,SB10,01,False,2024-08-06_15h43.22.020,Gratings_vis_devJG_v0.6,2024.1.5,None,2024-08-06 15h43.30.635179 -0400,
30,0,30,0,157.41666880005505,,,,,,,,,157.40140390000306,157.43338409997523,160.43344870000146,162.41658890002873,162.41658890002873,162.40041740005836,low,SB10,01,False,2024-08-06_15h43.22.020,Gratings_vis_devJG_v0.6,2024.1.5,None,2024-08-06 15h43.30.635179 -0400,
31,0,31,0,162.41658890002873,,,,,,,,,162.40096730005462,162.43319160002284,165.43337430001702,167.41672550002113,167.41672550002113,167.40017170005012,low,SB10,01,False,2024-08-06_15h43.22.020,Gratings_vis_devJG_v0.6,2024.1.5,None,2024-08-06 15h43.30.635179 -0400,
32,0,32,0,167.41672550002113,,,,,,,,,167.40043879998848,167.43360550003126,170.4333454000298,172.41649900004268,172.41649900004268,172.40063030004967,low,SB10,01,False,2024-08-06_15h43.22.020,Gratings_vis_devJG_v0.6,2024.1.5,None,2024-08-06 15h43.30.635179 -0400,
33,0,33,0,172.41649900004268,,,,,,,,,172.40089430008084,172.43357550003566,175.4334983000299,177.41650729998946,177.41650729998946,177.40052550006658,low,SB10,01,False,2024-08-06_15h43.22.020,Gratings_vis_devJG_v0.6,2024.1.5,None,2024-08-06 15h43.30.635179 -0400,
34,0,34,0,177.41650729998946,,,,,,,,,177.40078400005586,177.4332383000292,180.433364000055,182.41642100003082,182.41642100003082,182.4003187000053,low,SB10,01,False,2024-08-06_15h43.22.020,Gratings_vis_devJG_v0.6,2024.1.5,None,2024-08-06 15h43.30.635179 -0400,
35,0,35,0,182.41642100003082,,,,,,,,,182.40058020001743,182.4332238000352,185.43324160005432,187.4165634000674,187.4165634000674,187.40018039999995,low,SB10,01,False,2024-08-06_15h43.22.020,Gratings_vis_devJG_v0.6,2024.1.5,None,2024-08-06 15h43.30.635179 -0400,
36,0,36,0,187.4165634000674,,,,,,,,,187.40044019999914,187.43323209998198,190.43353250005748,,,192.4334762999788,low,SB10,01,False,2024-08-06_15h43.22.020,Gratings_vis_devJG_v0.6,2024.1.5,None,2024-08-06 15h43.30.635179 -0400,
37,0,37,0,192.44983679999132,,,,,,,,,192.43396739999298,192.44983679999132,195.43329050007742,,,197.4333096999908,low,SB10,01,False,2024-08-06_15h43.22.020,Gratings_vis_devJG_v0.6,2024.1.5,None,2024-08-06 15h43.30.635179 -0400,
38,0,38,0,197.44980280008167,,,,,,,,,197.43360690004192,197.44980280008167,200.43360700004268,,,202.4333401999902,low,SB10,01,False,2024-08-06_15h43.22.020,Gratings_vis_devJG_v0.6,2024.1.5,None,2024-08-06 15h43.30.635179 -0400,
39,0,39,0,202.4499820000492,,,,,,,,,202.43362290004734,202.4499820000492,205.43323349999264,,,207.4330851000268,low,SB10,01,False,2024-08-06_15h43.22.020,Gratings_vis_devJG_v0.6,2024.1.5,None,2024-08-06 15h43.30.635179 -0400,
40,0,40,0,207.44979460001923,,,,,,,,,207.43336370005272,207.44979460001923,210.4336170000024,,,212.43328700005077,low,SB10,01,False,2024-08-06_15h43.22.020,Gratings_vis_devJG_v0.6,2024.1.5,None,2024-08-06 15h43.30.635179 -0400,
41,0,41,0,212.44989639997948,,,,,,,,,212.43356929998845,212.44989639997948,215.43319140002131,,,217.43316070002038,low,SB10,01,False,2024-08-06_15h43.22.020,Gratings_vis_devJG_v0.6,2024.1.5,None,2024-08-06 15h43.30.635179 -0400,
42,0,42,0,217.44993860006798,,,,,,,,,217.43342450005002,217.44993860006798,220.4332093000412,,,222.43327300006058,low,SB10,01,False,2024-08-06_15h43.22.020,Gratings_vis_devJG_v0.6,2024.1.5,None,2024-08-06 15h43.30.635179 -0400,
43,0,43,0,222.44972550007515,,,,,,,,,222.4335565000074,222.44972550007515,225.43310949997976,,,227.43300339998677,low,SB10,01,False,2024-08-06_15h43.22.020,Gratings_vis_devJG_v0.6,2024.1.5,None,2024-08-06 15h43.30.635179 -0400,
44,0,44,0,227.44961290003266,,,,,,,,,227.4332732000621,227.44961290003266,230.43344980000984,,,232.43307300005108,low,SB10,01,False,2024-08-06_15h43.22.020,Gratings_vis_devJG_v0.6,2024.1.5,None,2024-08-06 15h43.30.635179 -0400,
45,0,45,0,232.4497013000073,,,,,,,,,232.43335070007015,232.4497013000073,235.4330830000108,,,237.43293640005868,low,SB10,01,False,2024-08-06_15h43.22.020,Gratings_vis_devJG_v0.6,2024.1.5,None,2024-08-06 15h43.30.635179 -0400,
46,0,46,0,237.4496062999824,,,,,,,,,237.4332159999758,237.4496062999824,240.4334004999837,,,242.43294299999252,low,SB10,01,False,2024-08-06_15h43.22.020,Gratings_vis_devJG_v0.6,2024.1.5,None,2024-08-06 15h43.30.635179 -0400,
47,0,47,0,242.44955550006125,,,,,,,,,242.43320420000236,242.44955550006125,245.43336999998428,,,247.43293370003812,low,SB10,01,False,2024-08-06_15h43.22.020,Gratings_vis_devJG_v0.6,2024.1.5,None,2024-08-06 15h43.30.635179 -0400,
48,0,48,0,247.44951820001006,,,,,,,,,247.43320770002902,247.44951820001006,250.43325960007496,,,252.43284420005511,low,SB10,01,False,2024-08-06_15h43.22.020,Gratings_vis_devJG_v0.6,2024.1.5,None,2024-08-06 15h43.30.635179 -0400,
49,0,49,0,252.4494969000807,,,,,,,,,252.43314930005,252.4494969000807,255.4329938000301,,,257.43285550002474,low,SB10,01,False,2024-08-06_15h43.22.020,Gratings_vis_devJG_v0.6,2024.1.5,None,2024-08-06 15h43.30.635179 -0400,
50,0,50,0,257.44947039999533,,,,,,,,,257.4331519000698,257.44947039999533,260.43290780007374,,,262.4328577000415,low,SB10,01,False,2024-08-06_15h43.22.020,Gratings_vis_devJG_v0.6,2024.1.5,None,2024-08-06 15h43.30.635179 -0400,
51,0,51,0,262.4495391000528,,,,,,,,,262.4331241999753,262.4495391000528,265.4328408000292,,,267.43277349998243,low,SB10,01,False,2024-08-06_15h43.22.020,Gratings_vis_devJG_v0.6,2024.1.5,None,2024-08-06 15h43.30.635179 -0400,
52,0,52,0,267.4494254000019,,,,,,,,,267.43307570007164,267.4494254000019,270.4328546000179,,,272.4327930000145,low,SB10,01,False,2024-08-06_15h43.22.020,Gratings_vis_devJG_v0.6,2024.1.5,None,2024-08-06 15h43.30.635179 -0400,
53,0,53,0,272.44942120008636,,,,,,,,,272.43305240001064,272.44942120008636,275.4328961999854,,,277.4329079000745,low,SB10,01,False,2024-08-06_15h43.22.020,Gratings_vis_devJG_v0.6,2024.1.5,None,2024-08-06 15h43.30.635179 -0400,
54,0,54,0,277.45081730000675,,,,,,,,,277.43341479997616,277.45081730000675,280.4331997000845,,,282.43293930008076,low,SB10,01,False,2024-08-06_15h43.22.020,Gratings_vis_devJG_v0.6,2024.1.5,None,2024-08-06 15h43.30.635179 -0400,
55,0,55,0,282.44938680005725,,,,,,,,,282.43370180006605,282.44938680005725,285.43282049999107,,,287.43271339999046,low,SB10,01,False,2024-08-06_15h43.22.020,Gratings_vis_devJG_v0.6,2024.1.5,None,2024-08-06 15h43.30.635179 -0400,
56,0,56,0,287.4493310999824,,,,,,,,,287.4329762000125,287.4493310999824,290.4327821000479,,,292.432742999983,low,SB10,01,False,2024-08-06_15h43.22.020,Gratings_vis_devJG_v0.6,2024.1.5,None,2024-08-06 15h43.30.635179 -0400,
57,0,57,0,292.44929420005064,,,,,,,,,292.43300660001114,292.44929420005064,295.4327304000035,,,297.4326430000365,low,SB10,01,False,2024-08-06_15h43.22.020,Gratings_vis_devJG_v0.6,2024.1.5,None,2024-08-06 15h43.30.635179 -0400,
58,0,58,0,297.4492767000338,,,,,,,,,297.4329335000366,297.4492767000338,300.4327403000789,,,302.4325941000134,low,SB10,01,False,2024-08-06_15h43.22.020,Gratings_vis_devJG_v0.6,2024.1.5,None,2024-08-06 15h43.30.635179 -0400,
59,0,59,0,302.44927430001553,,,,,,,,,302.43286070006434,302.44927430001553,305.43289970001206,,,307.4325705000665,low,SB10,01,False,2024-08-06_15h43.22.020,Gratings_vis_devJG_v0.6,2024.1.5,None,2024-08-06 15h43.30.635179 -0400,
60,0,60,0,307.4492020000471,,,,,,,,,307.43282960006036,307.4492020000471,310.43289300007746,,,312.4325535000535,low,SB10,01,False,2024-08-06_15h43.22.020,Gratings_vis_devJG_v0.6,2024.1.5,None,2024-08-06 15h43.30.635179 -0400,
61,0,61,0,312.4491766000865,,,,,,,,,312.43281800008845,312.4491766000865,315.4327274999814,,,317.4326015000697,low,SB10,01,False,2024-08-06_15h43.22.020,Gratings_vis_devJG_v0.6,2024.1.5,None,2024-08-06 15h43.30.635179 -0400,
62,0,62,0,317.4491378000239,,,,,,,,,317.432884800015,317.4491378000239,320.43267770006787,,,322.43249560007825,low,SB10,01,False,2024-08-06_15h43.22.020,Gratings_vis_devJG_v0.6,2024.1.5,None,2024-08-06 15h43.30.635179 -0400,
63,0,63,0,322.4493393000448,,,,,,,,,322.4327687000623,322.4493393000448,325.4327915000031,,,327.43251760001294,low,SB10,01,False,2024-08-06_15h43.22.020,Gratings_vis_devJG_v0.6,2024.1.5,None,2024-08-06 15h43.30.635179 -0400,
64,0,64,0,327.44907430000603,,,,,,,,,327.43279520003125,327.44907430000603,330.43265470000915,,,332.43246220005676,low,SB10,01,False,2024-08-06_15h43.22.020,Gratings_vis_devJG_v0.6,2024.1.5,None,2024-08-06 15h43.30.635179 -0400,
65,0,65,0,332.44912630005274,,,,,,,,,332.43274449999444,332.44912630005274,335.4325964000309,,,337.432696999982,low,SB10,01,False,2024-08-06_15h43.22.020,Gratings_vis_devJG_v0.6,2024.1.5,None,2024-08-06 15h43.30.635179 -0400,
66,0,66,0,337.4491150000831,,,,,,,,,337.43322860007174,337.4491150000831,340.43259440001566,,,342.4324354000855,low,SB10,01,False,2024-08-06_15h43.22.020,Gratings_vis_devJG_v0.6,2024.1.5,None,2024-08-06 15h43.30.635179 -0400,
67,0,67,0,342.44906960008666,,,,,,,,,342.43270440003835,342.44906960008666,345.43257449998055,,,347.4324735000264,low,SB10,01,False,2024-08-06_15h43.22.020,Gratings_vis_devJG_v0.6,2024.1.5,None,2024-08-06 15h43.30.635179 -0400,
68,0,68,0,347.4490443000104,,,,,,,,,347.4327304000035,347.4490443000104,350.43258979998063,,,352.4323956000153,low,SB10,01,False,2024-08-06_15h43.22.020,Gratings_vis_devJG_v0.6,2024.1.5,None,2024-08-06 15h43.30.635179 -0400,
69,0,69,0,352.4490143000148,,,,,,,,,352.43266170006245,352.4490143000148,355.4325437999796,,,357.4325086000608,low,SB10,01,False,2024-08-06_15h43.22.020,Gratings_vis_devJG_v0.6,2024.1.5,None,2024-08-06 15h43.30.635179 -0400,
70,0,70,0,357.4493836000329,,,,,,,,,357.4327661000425,357.4493836000329,360.43248339998536,,,362.43234790000133,low,SB10,01,False,2024-08-06_15h43.22.020,Gratings_vis_devJG_v0.6,2024.1.5,None,2024-08-06 15h43.30.635179 -0400,
71,0,71,0,362.44945720001124,,,,,,,,,362.43260759999976,362.44945720001124,365.4325092000654,,,367.4323231000453,low,SB10,01,False,2024-08-06_15h43.22.020,Gratings_vis_devJG_v0.6,2024.1.5,None,2024-08-06 15h43.30.635179 -0400,
72,0,72,0,367.44893660000525,,,,,,,,,367.43258330004755,367.44893660000525,370.43242630001623,,,372.43227330001537,low,SB10,01,False,2024-08-06_15h43.22.020,Gratings_vis_devJG_v0.6,2024.1.5,None,2024-08-06 15h43.30.635179 -0400,
73,0,73,0,372.44891620008275,,,,,,,,,372.432574299979,372.44891620008275,375.43239880003966,,,377.43227980006486,low,SB10,01,False,2024-08-06_15h43.22.020,Gratings_vis_devJG_v0.6,2024.1.5,None,2024-08-06 15h43.30.635179 -0400,
74,0,74,0,377.4488534000702,,,,,,,,,377.43254250008613,377.4488534000702,380.4324763000477,,,382.43400340003427,low,SB10,01,False,2024-08-06_15h43.22.020,Gratings_vis_devJG_v0.6,2024.1.5,None,2024-08-06 15h43.30.635179 -0400,
75,0,75,0,382.44895400002133,,,,,,,,,382.4343122000573,382.44895400002133,385.4324103000108,,,387.4327381000621,low,SB10,01,False,2024-08-06_15h43.22.020,Gratings_vis_devJG_v0.6,2024.1.5,None,2024-08-06 15h43.30.635179 -0400,
76,0,76,0,387.4488112999825,,,,,,,,,387.43304590007756,387.4488112999825,390.4323092000559,,,392.4323143999791,low,SB10,01,False,2024-08-06_15h43.22.020,Gratings_vis_devJG_v0.6,2024.1.5,None,2024-08-06 15h43.30.635179 -0400,
77,0,77,0,392.4488343000412,,,,,,,,,392.4326015000697,392.4488343000412,395.43238560005557,,,397.43235590006225,low,SB10,01,False,2024-08-06_15h43.22.020,Gratings_vis_devJG_v0.6,2024.1.5,None,2024-08-06 15h43.30.635179 -0400,
78,0,78,0,397.4488438999979,,,,,,,,,397.432674700045,397.4488438999979,400.43249150004704,,,402.4322624000488,low,SB10,01,False,2024-08-06_15h43.22.020,Gratings_vis_devJG_v0.6,2024.1.5,None,2024-08-06 15h43.30.635179 -0400,
79,0,79,0,402.4490076000802,,,,,,,,,402.4325451999903,402.4490076000802,405.4328160000732,,,407.4322856999934,low,SB10,01,False,2024-08-06_15h43.22.020,Gratings_vis_devJG_v0.6,2024.1.5,None,2024-08-06 15h43.30.635179 -0400,
80,0,80,0,407.4487251000246,,,,,,,,,407.43254940002225,407.4487251000246,410.4330388000235,,,412.43208240007516,low,SB10,01,False,2024-08-06_15h43.22.020,Gratings_vis_devJG_v0.6,2024.1.5,None,2024-08-06 15h43.30.635179 -0400,
81,0,81,0,412.44869190000463,,,,,,,,,412.4323532000417,412.44869190000463,415.43325730005745,,,417.4320332000498,low,SB10,01,False,2024-08-06_15h43.22.020,Gratings_vis_devJG_v0.6,2024.1.5,None,2024-08-06 15h43.30.635179 -0400,
82,0,82,0,417.448668200057,,,,,,,,,417.43232350004837,417.448668200057,420.43361589999404,,,422.432440900011,low,SB10,01,False,2024-08-06_15h43.22.020,Gratings_vis_devJG_v0.6,2024.1.5,None,2024-08-06 15h43.30.635179 -0400,
83,0,83,0,422.4487756000599,,,,,,,,,422.4327269999776,422.4487756000599,425.43387020006776,,,427.4325079000555,low,SB10,01,False,2024-08-06_15h43.22.020,Gratings_vis_devJG_v0.6,2024.1.5,None,2024-08-06 15h43.30.635179 -0400,
84,0,84,0,427.4490509000607,,,,,,,,,427.4327682000585,427.4490509000607,430.434159800061,,,432.432649900089,low,SB10,01,False,2024-08-06_15h43.22.020,Gratings_vis_devJG_v0.6,2024.1.5,None,2024-08-06 15h43.30.635179 -0400,
85,0,85,0,432.449268000084,,,,,,,,,432.43290600006003,432.449268000084,435.4344750000164,,,437.4328541000141,low,SB10,01,False,2024-08-06_15h43.22.020,Gratings_vis_devJG_v0.6,2024.1.5,None,2024-08-06 15h43.30.635179 -0400,
86,0,86,0,437.4494786000578,,,,,,,,,437.43315070006065,437.4494786000578,440.43474320007954,,,442.43324949999806,low,SB10,01,False,2024-08-06_15h43.22.020,Gratings_vis_devJG_v0.6,2024.1.5,None,2024-08-06 15h43.30.635179 -0400,
87,0,87,0,442.4497607999947,,,,,,,,,442.43351730005816,442.4497607999947,445.4351065000519,,,447.43201129999943,low,SB10,01,False,2024-08-06_15h43.22.020,Gratings_vis_devJG_v0.6,2024.1.5,None,2024-08-06 15h43.30.635179 -0400,
88,0,88,0,447.4487070000032,,,,,,,,,447.43228060007095,447.4487070000032,450.43203530006576,,,452.4322376999771,low,SB10,01,False,2024-08-06_15h43.22.020,Gratings_vis_devJG_v0.6,2024.1.5,None,2024-08-06 15h43.30.635179 -0400,
89,0,89,0,452.44873790000565,,,,,,,,,452.43253079999704,452.44873790000565,455.43238640006166,,,457.43220380006824,low,SB10,01,False,2024-08-06_15h43.22.020,Gratings_vis_devJG_v0.6,2024.1.5,None,2024-08-06 15h43.30.635179 -0400,
90,0,90,0,457.44867010007147,,,,,,,,,457.4324906000402,457.44867010007147,460.4322220000904,,,462.4317634999752,low,SB10,01,False,2024-08-06_15h43.22.020,Gratings_vis_devJG_v0.6,2024.1.5,None,2024-08-06 15h43.30.635179 -0400,
91,0,91,0,462.4483316000551,,,,,,,,,462.4320354000665,462.4483316000551,465.43185549997725,,,467.4317953999853,low,SB10,01,False,2024-08-06_15h43.22.020,Gratings_vis_devJG_v0.6,2024.1.5,None,2024-08-06 15h43.30.635179 -0400,
92,0,92,0,467.448276399984,,,,,,,,,467.43207310000435,467.448276399984,470.43180060002487,,,472.43183070002124,low,SB10,01,False,2024-08-06_15h43.22.020,Gratings_vis_devJG_v0.6,2024.1.5,None,2024-08-06 15h43.30.635179 -0400,
93,0,93,0,472.4482685000403,,,,,,,,,472.43209800007753,472.4482685000403,475.43184490001295,,,477.4316736999899,low,SB10,01,False,2024-08-06_15h43.22.020,Gratings_vis_devJG_v0.6,2024.1.5,None,2024-08-06 15h43.30.635179 -0400,
94,0,94,0,477.4483207000885,,,,,,,,,477.431939000031,477.4483207000885,480.4320176000474,,,482.43167199997697,low,SB10,01,False,2024-08-06_15h43.22.020,Gratings_vis_devJG_v0.6,2024.1.5,None,2024-08-06 15h43.30.635179 -0400,
95,0,95,0,482.44830400007777,,,,,,,,,482.43194500007667,482.44830400007777,485.4320565999951,,,487.4316089000786,low,SB10,01,False,2024-08-06_15h43.22.020,Gratings_vis_devJG_v0.6,2024.1.5,None,2024-08-06 15h43.30.635179 -0400,
96,0,96,0,487.4483251000056,,,,,,,,,487.43188110005576,487.4483251000056,490.4317700000247,,,492.4316089000786,low,SB10,01,False,2024-08-06_15h43.22.020,Gratings_vis_devJG_v0.6,2024.1.5,None,2024-08-06 15h43.30.635179 -0400,
97,0,97,0,492.44834180001635,,,,,,,,,492.4319095000392,492.44834180001635,495.43171909998637,,,497.431576800067,low,SB10,01,False,2024-08-06_15h43.22.020,Gratings_vis_devJG_v0.6,2024.1.5,None,2024-08-06 15h43.30.635179 -0400,
98,0,98,0,497.44854800007306,,,,,,,,,497.43185599998105,497.44854800007306,500.43165600008797,,,502.4315552000189,low,SB10,01,False,2024-08-06_15h43.22.020,Gratings_vis_devJG_v0.6,2024.1.5,None,2024-08-06 15h43.30.635179 -0400,
99,0,99,0,502.44845260004513,,,,,,,,,502.43181380000897,502.44845260004513,505.4316492000362,,,507.431468600058,low,SB10,01,False,2024-08-06_15h43.22.020,Gratings_vis_devJG_v0.6,2024.1.5,None,2024-08-06 15h43.30.635179 -0400,
100,0,100,0,507.4481878000079,,,,,,,,,507.4318839000771,507.4481878000079,510.43168969999533,,,512.4317573000444,low,SB10,01,False,2024-08-06_15h43.22.020,Gratings_vis_devJG_v0.6,2024.1.5,None,2024-08-06 15h43.30.635179 -0400,
101,0,101,0,512.4482161999913,,,,,,,,,512.4320180000504,512.4482161999913,515.4317215000046,,,517.4313958000857,low,SB10,01,False,2024-08-06_15h43.22.020,Gratings_vis_devJG_v0.6,2024.1.5,None,2024-08-06 15h43.30.635179 -0400,
102,0,102,0,517.4483809000812,,,,,,,,,517.4316636000294,517.4483809000812,520.4316222000634,,,522.4315299000591,low,SB10,01,False,2024-08-06_15h43.22.020,Gratings_vis_devJG_v0.6,2024.1.5,None,2024-08-06 15h43.30.635179 -0400,
103,0,103,0,522.4482316999929,,,,,,,,,522.4318169000326,522.4482316999929,525.4316035000375,,,527.431551799993,low,SB10,01,False,2024-08-06_15h43.22.020,Gratings_vis_devJG_v0.6,2024.1.5,None,2024-08-06 15h43.30.635179 -0400,
104,0,104,0,527.4481129000196,,,,,,,,,527.4318455000175,527.4481129000196,530.4319068000186,,,532.4315474000759,low,SB10,01,False,2024-08-06_15h43.22.020,Gratings_vis_devJG_v0.6,2024.1.5,None,2024-08-06 15h43.30.635179 -0400,
105,0,105,0,532.448200999992,,,,,,,,,532.4318089000881,532.448200999992,535.4315521999961,,,537.4314663000405,low,SB10,01,False,2024-08-06_15h43.22.020,Gratings_vis_devJG_v0.6,2024.1.5,None,2024-08-06 15h43.30.635179 -0400,
106,0,106,0,537.4480960000074,,,,,,,,,537.4317383000161,537.4480960000074,540.4316172000254,,,542.431408500066,low,SB10,01,False,2024-08-06_15h43.22.020,Gratings_vis_devJG_v0.6,2024.1.5,None,2024-08-06 15h43.30.635179 -0400,
107,0,107,0,542.4480334999971,,,,,,,,,542.4316870000912,542.4480334999971,545.4315998000093,,,547.4314144999953,low,SB10,01,False,2024-08-06_15h43.22.020,Gratings_vis_devJG_v0.6,2024.1.5,None,2024-08-06 15h43.30.635179 -0400,
108,0,108,0,547.4480431000702,,,,,,,,,547.4316789000295,547.4480431000702,550.4318249999778,,,552.4313780000666,low,SB10,01,False,2024-08-06_15h43.22.020,Gratings_vis_devJG_v0.6,2024.1.5,None,2024-08-06 15h43.30.635179 -0400,
109,0,109,0,552.4480059000198,,,,,,,,,552.4316411000909,552.4480059000198,555.4314104000805,,,557.4313479000703,low,SB10,01,False,2024-08-06_15h43.22.020,Gratings_vis_devJG_v0.6,2024.1.5,None,2024-08-06 15h43.30.635179 -0400,
110,0,110,0,557.4479864999885,,,,,,,,,557.4316388000734,557.4479864999885,560.4314179000212,,,562.4314751999918,low,SB10,01,False,2024-08-06_15h43.22.020,Gratings_vis_devJG_v0.6,2024.1.5,None,2024-08-06 15h43.30.635179 -0400,
111,0,111,0,562.4482005999889,,,,,,,,,562.4317755000666,562.4482005999889,565.4314511000412,,,567.4313054999802,low,SB10,01,False,2024-08-06_15h43.22.020,Gratings_vis_devJG_v0.6,2024.1.5,None,2024-08-06 15h43.30.635179 -0400,
112,0,112,0,567.4481496000662,,,,,,,,,567.431599500007,567.4481496000662,570.4313912000507,,,572.4314309000038,low,SB10,01,False,2024-08-06_15h43.22.020,Gratings_vis_devJG_v0.6,2024.1.5,None,2024-08-06 15h43.30.635179 -0400,
113,0,113,0,572.4479031000519,,,,,,,,,572.431689399993,572.4479031000519,575.431185399997,,,577.4312617999967,low,SB10,01,False,2024-08-06_15h43.22.020,Gratings_vis_devJG_v0.6,2024.1.5,None,2024-08-06 15h43.30.635179 -0400,
114,0,114,0,577.4480908000842,,,,,,,,,577.4315261000302,577.4480908000842,580.4316793000326,,,582.4311921000481,low,SB10,01,False,2024-08-06_15h43.22.020,Gratings_vis_devJG_v0.6,2024.1.5,None,2024-08-06 15h43.30.635179 -0400,
115,0,115,0,582.4479386000894,,,,,,,,,582.4314564000815,582.4479386000894,585.4313419000246,,,587.4312430000864,low,SB10,01,False,2024-08-06_15h43.22.020,Gratings_vis_devJG_v0.6,2024.1.5,None,2024-08-06 15h43.30.635179 -0400,
116,0,116,0,587.4477599000093,,,,,,,,,587.4315212999936,587.4477599000093,590.43158460001,,,592.4311305000447,low,SB10,01,False,2024-08-06_15h43.22.020,Gratings_vis_devJG_v0.6,2024.1.5,None,2024-08-06 15h43.30.635179 -0400,
117,0,117,0,592.4478465000866,,,,,,,,,592.4313870000187,592.4478465000866,595.4312487000134,,,597.4312172000064,low,SB10,01,False,2024-08-06_15h43.22.020,Gratings_vis_devJG_v0.6,2024.1.5,None,2024-08-06 15h43.30.635179 -0400,
118,0,118,0,597.4477927000262,,,,,,,,,597.4314731999766,597.4477927000262,600.4312152999919,,,602.4311236999929,low,SB10,01,False,2024-08-06_15h43.22.020,Gratings_vis_devJG_v0.6,2024.1.5,None,2024-08-06 15h43.30.635179 -0400,
119,0,119,0,602.4477410999825,,,,,,,,,602.4313838999951,602.4477410999825,605.4313130000373,,,607.4310805000132,low,SB10,01,False,2024-08-06_15h43.22.020,Gratings_vis_devJG_v0.6,2024.1.5,None,2024-08-06 15h43.30.635179 -0400,
