trials.thisRepN,trials.thisTrialN,trials.thisN,trials.thisIndex,thisRow.t,notes,nidaqTrigger.started,text_waiting_message.started,key_resp.started,nidaqTrigger.stopped,key_resp.keys,key_resp.rt,key_resp.duration,display_gratings.started,stim_grayScreen.started,stim_grating.started,stim_grayScreen.stopped,stim_grating.stopped,display_gratings.stopped,Protocol ID,Subject ID,Session ID,Wait for Trigger,date,expName,psychopyVersion,frameRate,expStart,
,,,,,,0.07651719998102635,0.07871119992341846,0.07871119992341846,4.868045300012454,space,4.780312199960463,None,,,,,,,high,SB05,01,False,2024-08-08_16h32.06.824,Gratings_vis_devJG_v0.6,2024.1.5,None,2024-08-08 16h32.15.286298 -0400,
0,0,0,0,4.909834999940358,,,,,,,,,4.907771899946965,4.909834999940358,7.916051000007428,9.89896439993754,9.89896439993754,9.882554599898867,high,SB05,01,False,2024-08-08_16h32.06.824,Gratings_vis_devJG_v0.6,2024.1.5,None,2024-08-08 16h32.15.286298 -0400,
1,0,1,0,9.89896439993754,,,,,,,,,9.882814699900337,9.915654000011273,12.916090999962762,14.89928389992565,14.89928389992565,14.882876899908297,high,SB05,01,False,2024-08-08_16h32.06.824,Gratings_vis_devJG_v0.6,2024.1.5,None,2024-08-08 16h32.15.286298 -0400,
2,0,2,0,14.89928389992565,,,,,,,,,14.883127399953082,14.915963399922475,17.916125099989586,19.89923869993072,19.89923869993072,19.883022999973036,high,SB05,01,False,2024-08-08_16h32.06.824,Gratings_vis_devJG_v0.6,2024.1.5,None,2024-08-08 16h32.15.286298 -0400,
3,0,3,0,19.89923869993072,,,,,,,,,19.883541899966076,19.915963999927044,22.916082000010647,24.899244399974123,24.899244399974123,24.882838499965146,high,SB05,01,False,2024-08-08_16h32.06.824,Gratings_vis_devJG_v0.6,2024.1.5,None,2024-08-08 16h32.15.286298 -0400,
4,0,4,0,24.899244399974123,,,,,,,,,24.883084499975666,24.916139199980535,27.916054699919187,29.89934030000586,29.89934030000586,29.884330099914223,high,SB05,01,False,2024-08-08_16h32.06.824,Gratings_vis_devJG_v0.6,2024.1.5,None,2024-08-08 16h32.15.286298 -0400,
5,0,5,0,29.89934030000586,,,,,,,,,29.884574799914844,29.915861299959943,32.91606309998315,34.899214199976996,34.899214199976996,34.88376869994681,high,SB05,01,False,2024-08-08_16h32.06.824,Gratings_vis_devJG_v0.6,2024.1.5,None,2024-08-08 16h32.15.286298 -0400,
6,0,6,0,34.899214199976996,,,,,,,,,34.88400689989794,34.915849399985746,37.91599759995006,39.90060109994374,39.90060109994374,39.883859399938956,high,SB05,01,False,2024-08-08_16h32.06.824,Gratings_vis_devJG_v0.6,2024.1.5,None,2024-08-08 16h32.15.286298 -0400,
7,0,7,0,39.90060109994374,,,,,,,,,39.88409840001259,39.91582849994302,42.9160243999213,44.90062420000322,44.90062420000322,44.88417279999703,high,SB05,01,False,2024-08-08_16h32.06.824,Gratings_vis_devJG_v0.6,2024.1.5,None,2024-08-08 16h32.15.286298 -0400,
8,0,8,0,44.90062420000322,,,,,,,,,44.88464569998905,44.916516899946146,47.91625679994468,49.900809999904595,49.900809999904595,49.88456989999395,high,SB05,01,False,2024-08-08_16h32.06.824,Gratings_vis_devJG_v0.6,2024.1.5,None,2024-08-08 16h32.15.286298 -0400,
9,0,9,0,49.900809999904595,,,,,,,,,49.884824999957345,49.91580849990714,52.91600639990065,54.89906769990921,54.89906769990921,54.88265169993974,high,SB05,01,False,2024-08-08_16h32.06.824,Gratings_vis_devJG_v0.6,2024.1.5,None,2024-08-08 16h32.15.286298 -0400,
10,0,10,0,54.89906769990921,,,,,,,,,54.882899199961685,54.9165733999107,57.91583889990579,59.899135099956766,59.899135099956766,59.88254479994066,high,SB05,01,False,2024-08-08_16h32.06.824,Gratings_vis_devJG_v0.6,2024.1.5,None,2024-08-08 16h32.15.286298 -0400,
11,0,11,0,59.899135099956766,,,,,,,,,59.88278429990169,59.91570219991263,62.91591899993364,64.89926839992404,64.89926839992404,64.88285249995533,high,SB05,01,False,2024-08-08_16h32.06.824,Gratings_vis_devJG_v0.6,2024.1.5,None,2024-08-08 16h32.15.286298 -0400,
12,0,12,0,64.89926839992404,,,,,,,,,64.88310209999327,64.91581279993989,67.91621759999543,69.89905649994034,69.89905649994034,69.8828944999259,high,SB05,01,False,2024-08-08_16h32.06.824,Gratings_vis_devJG_v0.6,2024.1.5,None,2024-08-08 16h32.15.286298 -0400,
13,0,13,0,69.89905649994034,,,,,,,,,69.883151399903,69.91562919993885,72.91640200000256,74.90011369995773,74.90011369995773,74.88248689996544,high,SB05,01,False,2024-08-08_16h32.06.824,Gratings_vis_devJG_v0.6,2024.1.5,None,2024-08-08 16h32.15.286298 -0400,
14,0,14,0,74.90011369995773,,,,,,,,,74.88275160000194,74.91580620000605,77.9166622000048,79.89892790000886,79.89892790000886,79.88291749998461,high,SB05,01,False,2024-08-08_16h32.06.824,Gratings_vis_devJG_v0.6,2024.1.5,None,2024-08-08 16h32.15.286298 -0400,
15,0,15,0,79.89892790000886,,,,,,,,,79.88316839991603,79.91577719990164,82.91693770000711,84.89917079999577,84.89917079999577,84.88291149993893,high,SB05,01,False,2024-08-08_16h32.06.824,Gratings_vis_devJG_v0.6,2024.1.5,None,2024-08-08 16h32.15.286298 -0400,
16,0,16,0,84.89917079999577,,,,,,,,,84.8831702999305,84.9156352999853,87.91725519997999,89.89906560000964,89.89906560000964,89.88330779992975,high,SB05,01,False,2024-08-08_16h32.06.824,Gratings_vis_devJG_v0.6,2024.1.5,None,2024-08-08 16h32.15.286298 -0400,
17,0,17,0,89.89906560000964,,,,,,,,,89.8835539999418,89.91569819999859,92.91751930001192,94.89936899999157,94.89936899999157,94.88290849991608,high,SB05,01,False,2024-08-08_16h32.06.824,Gratings_vis_devJG_v0.6,2024.1.5,None,2024-08-08 16h32.15.286298 -0400,
18,0,18,0,94.89936899999157,,,,,,,,,94.88318979996257,94.9160367998993,97.91783649998251,99.89955779991578,99.89955779991578,99.88308539998252,high,SB05,01,False,2024-08-08_16h32.06.824,Gratings_vis_devJG_v0.6,2024.1.5,None,2024-08-08 16h32.15.286298 -0400,
19,0,19,0,99.89955779991578,,,,,,,,,99.88332039990928,99.91621830000076,102.91816669993568,104.89984849991743,104.89984849991743,104.88276119995862,high,SB05,01,False,2024-08-08_16h32.06.824,Gratings_vis_devJG_v0.6,2024.1.5,None,2024-08-08 16h32.15.286298 -0400,
20,0,20,0,104.89984849991743,,,,,,,,,104.88326049991883,104.9164882999612,107.91844819998369,109.90016279998235,109.90016279998235,109.88422619993798,high,SB05,01,False,2024-08-08_16h32.06.824,Gratings_vis_devJG_v0.6,2024.1.5,None,2024-08-08 16h32.15.286298 -0400,
21,0,21,0,109.90016279998235,,,,,,,,,109.88448129990138,109.916867599939,112.91875249997247,114.89876129990444,114.89876129990444,114.88230089994613,high,SB05,01,False,2024-08-08_16h32.06.824,Gratings_vis_devJG_v0.6,2024.1.5,None,2024-08-08 16h32.15.286298 -0400,
22,0,22,0,114.89876129990444,,,,,,,,,114.88256709999405,114.91548719990533,117.91594629990868,119.90059579990339,119.90059579990339,119.88270749989897,high,SB05,01,False,2024-08-08_16h32.06.824,Gratings_vis_devJG_v0.6,2024.1.5,None,2024-08-08 16h32.15.286298 -0400,
23,0,23,0,119.90059579990339,,,,,,,,,119.88295629993081,119.91558029991575,122.91556289989967,124.89868389989715,124.89868389989715,124.88256559998263,high,SB05,01,False,2024-08-08_16h32.06.824,Gratings_vis_devJG_v0.6,2024.1.5,None,2024-08-08 16h32.15.286298 -0400,
24,0,24,0,124.89868389989715,,,,,,,,,124.8828111999901,124.91522359999362,127.91581749997567,129.8985636999132,129.8985636999132,129.88253259996418,high,SB05,01,False,2024-08-08_16h32.06.824,Gratings_vis_devJG_v0.6,2024.1.5,None,2024-08-08 16h32.15.286298 -0400,
25,0,25,0,129.8985636999132,,,,,,,,,129.88280269992538,129.91524739994202,132.91558179992717,134.89857239997946,134.89857239997946,134.88214299990796,high,SB05,01,False,2024-08-08_16h32.06.824,Gratings_vis_devJG_v0.6,2024.1.5,None,2024-08-08 16h32.15.286298 -0400,
26,0,26,0,134.89857239997946,,,,,,,,,134.88240130001213,134.91552779998165,137.9157485999167,139.89857699989807,139.89857699989807,139.88207469996996,high,SB05,01,False,2024-08-08_16h32.06.824,Gratings_vis_devJG_v0.6,2024.1.5,None,2024-08-08 16h32.15.286298 -0400,
27,0,27,0,139.89857699989807,,,,,,,,,139.88232360000256,139.9152939999476,142.91541659994982,144.898541499977,144.898541499977,144.88251539994963,high,SB05,01,False,2024-08-08_16h32.06.824,Gratings_vis_devJG_v0.6,2024.1.5,None,2024-08-08 16h32.15.286298 -0400,
28,0,28,0,144.898541499977,,,,,,,,,144.8827741999412,144.91537169995718,147.91534039995167,149.89869549998548,149.89869549998548,149.88282219995745,high,SB05,01,False,2024-08-08_16h32.06.824,Gratings_vis_devJG_v0.6,2024.1.5,None,2024-08-08 16h32.15.286298 -0400,
29,0,29,0,149.89869549998548,,,,,,,,,149.88331239996478,149.91551099997014,152.9154119999148,154.89855559996795,154.89855559996795,154.8821617999347,high,SB05,01,False,2024-08-08_16h32.06.824,Gratings_vis_devJG_v0.6,2024.1.5,None,2024-08-08 16h32.15.286298 -0400,
30,0,30,0,154.89855559996795,,,,,,,,,154.88242559996434,154.91518419992644,157.91538789996412,159.8985259999754,159.8985259999754,159.88265409995802,high,SB05,01,False,2024-08-08_16h32.06.824,Gratings_vis_devJG_v0.6,2024.1.5,None,2024-08-08 16h32.15.286298 -0400,
31,0,31,0,159.8985259999754,,,,,,,,,159.88290189998224,159.9153444999829,162.91561549995095,164.89852059993427,164.89852059993427,164.88307959993836,high,SB05,01,False,2024-08-08_16h32.06.824,Gratings_vis_devJG_v0.6,2024.1.5,None,2024-08-08 16h32.15.286298 -0400,
32,0,32,0,164.89852059993427,,,,,,,,,164.88355979998596,164.91511699999683,167.91526639997028,169.8985636999132,169.8985636999132,169.8819842999801,high,SB05,01,False,2024-08-08_16h32.06.824,Gratings_vis_devJG_v0.6,2024.1.5,None,2024-08-08 16h32.15.286298 -0400,
33,0,33,0,169.8985636999132,,,,,,,,,169.8822277999716,169.91520359995775,172.91547809995245,174.89840259996708,174.89840259996708,174.88235799991526,high,SB05,01,False,2024-08-08_16h32.06.824,Gratings_vis_devJG_v0.6,2024.1.5,None,2024-08-08 16h32.15.286298 -0400,
34,0,34,0,174.89840259996708,,,,,,,,,174.88261229998898,174.915068399976,177.91522460000124,179.8983925000066,179.8983925000066,179.8820027000038,high,SB05,01,False,2024-08-08_16h32.06.824,Gratings_vis_devJG_v0.6,2024.1.5,None,2024-08-08 16h32.15.286298 -0400,
35,0,35,0,179.8983925000066,,,,,,,,,179.88226529990789,179.91509369993582,182.91527779994067,184.89841019990854,184.89841019990854,184.88191629992798,high,SB05,01,False,2024-08-08_16h32.06.824,Gratings_vis_devJG_v0.6,2024.1.5,None,2024-08-08 16h32.15.286298 -0400,
36,0,36,0,184.89841019990854,,,,,,,,,184.8821586999111,184.91503209993243,187.91554769990034,189.89839320001192,189.89839320001192,189.88186459999997,high,SB05,01,False,2024-08-08_16h32.06.824,Gratings_vis_devJG_v0.6,2024.1.5,None,2024-08-08 16h32.15.286298 -0400,
37,0,37,0,189.89839320001192,,,,,,,,,189.88211839995347,189.91499409999233,192.91520149994176,194.89854969992302,194.89854969992302,194.88183719990775,high,SB05,01,False,2024-08-08_16h32.06.824,Gratings_vis_devJG_v0.6,2024.1.5,None,2024-08-08 16h32.15.286298 -0400,
38,0,38,0,194.89854969992302,,,,,,,,,194.88208229991142,194.91519589989912,197.9153710999526,199.89860419998877,199.89860419998877,199.88194929994643,high,SB05,01,False,2024-08-08_16h32.06.824,Gratings_vis_devJG_v0.6,2024.1.5,None,2024-08-08 16h32.15.286298 -0400,
39,0,39,0,199.89860419998877,,,,,,,,,199.8822119999677,199.91506809997372,202.91513189999387,204.89829989999998,204.89829989999998,204.8821824999759,high,SB05,01,False,2024-08-08_16h32.06.824,Gratings_vis_devJG_v0.6,2024.1.5,None,2024-08-08 16h32.15.286298 -0400,
40,0,40,0,204.89829989999998,,,,,,,,,204.8824398999568,204.91498889995273,207.91509279992897,209.89826459996402,209.89826459996402,209.88185399991926,high,SB05,01,False,2024-08-08_16h32.06.824,Gratings_vis_devJG_v0.6,2024.1.5,None,2024-08-08 16h32.15.286298 -0400,
41,0,41,0,209.89826459996402,,,,,,,,,209.88210439996328,209.91502949991263,212.91505720000714,214.89825679990463,214.89825679990463,214.8818176999921,high,SB05,01,False,2024-08-08_16h32.06.824,Gratings_vis_devJG_v0.6,2024.1.5,None,2024-08-08 16h32.15.286298 -0400,
42,0,42,0,214.89825679990463,,,,,,,,,214.88206869992428,214.91488999989815,217.91502739989664,219.89819959993474,219.89819959993474,219.88233339996077,high,SB05,01,False,2024-08-08_16h32.06.824,Gratings_vis_devJG_v0.6,2024.1.5,None,2024-08-08 16h32.15.286298 -0400,
43,0,43,0,219.89819959993474,,,,,,,,,219.88259599998128,219.91487609990872,222.91493189998437,224.89823839999735,224.89823839999735,224.88242329994682,high,SB05,01,False,2024-08-08_16h32.06.824,Gratings_vis_devJG_v0.6,2024.1.5,None,2024-08-08 16h32.15.286298 -0400,
44,0,44,0,224.89823839999735,,,,,,,,,224.88268009992316,224.91503769997507,227.91501469991636,229.89814959990326,229.89814959990326,229.8816789999837,high,SB05,01,False,2024-08-08_16h32.06.824,Gratings_vis_devJG_v0.6,2024.1.5,None,2024-08-08 16h32.15.286298 -0400,
45,0,45,0,229.89814959990326,,,,,,,,,229.88193189993035,229.91483909997623,232.91522570000961,234.8981893999735,234.8981893999735,234.88215829990804,high,SB05,01,False,2024-08-08_16h32.06.824,Gratings_vis_devJG_v0.6,2024.1.5,None,2024-08-08 16h32.15.286298 -0400,
46,0,46,0,234.8981893999735,,,,,,,,,234.8824159000069,234.91480589995626,237.9149226999143,239.89813059999142,239.89813059999142,239.8817213999573,high,SB05,01,False,2024-08-08_16h32.06.824,Gratings_vis_devJG_v0.6,2024.1.5,None,2024-08-08 16h32.15.286298 -0400,
47,0,47,0,239.89813059999142,,,,,,,,,239.88199009990785,239.91482760000508,242.914876399911,244.89808829990216,244.89808829990216,244.88170259993058,high,SB05,01,False,2024-08-08_16h32.06.824,Gratings_vis_devJG_v0.6,2024.1.5,None,2024-08-08 16h32.15.286298 -0400,
48,0,48,0,244.89808829990216,,,,,,,,,244.88194919994567,244.9147020999808,247.91487919993233,249.89803819998633,249.89803819998633,249.88205499993637,high,SB05,01,False,2024-08-08_16h32.06.824,Gratings_vis_devJG_v0.6,2024.1.5,None,2024-08-08 16h32.15.286298 -0400,
49,0,49,0,249.89803819998633,,,,,,,,,249.88230649998877,249.91471279994585,252.91484169999603,254.89804439991713,254.89804439991713,254.88163119996898,high,SB05,01,False,2024-08-08_16h32.06.824,Gratings_vis_devJG_v0.6,2024.1.5,None,2024-08-08 16h32.15.286298 -0400,
50,0,50,0,254.89804439991713,,,,,,,,,254.88187449995894,254.91469619993586,257.91485299996566,259.898018799955,259.898018799955,259.8815777999116,high,SB05,01,False,2024-08-08_16h32.06.824,Gratings_vis_devJG_v0.6,2024.1.5,None,2024-08-08 16h32.15.286298 -0400,
51,0,51,0,259.898018799955,,,,,,,,,259.88181829999667,259.91465329995845,262.9148768999148,264.8979274999583,264.8979274999583,264.8815213999478,high,SB05,01,False,2024-08-08_16h32.06.824,Gratings_vis_devJG_v0.6,2024.1.5,None,2024-08-08 16h32.15.286298 -0400,
52,0,52,0,264.8979274999583,,,,,,,,,264.88177440001164,264.91465479996987,267.91481270000804,269.8979259999469,269.8979259999469,269.88198519998696,high,SB05,01,False,2024-08-08_16h32.06.824,Gratings_vis_devJG_v0.6,2024.1.5,None,2024-08-08 16h32.15.286298 -0400,
53,0,53,0,269.8979259999469,,,,,,,,,269.88223509991076,269.9146465999074,272.9147713999264,274.8979528999189,274.8979528999189,274.881477399962,high,SB05,01,False,2024-08-08_16h32.06.824,Gratings_vis_devJG_v0.6,2024.1.5,None,2024-08-08 16h32.15.286298 -0400,
54,0,54,0,274.8979528999189,,,,,,,,,274.8817177999299,274.91454569995403,277.91474719997495,279.8978814999573,279.8978814999573,279.8815598000074,high,SB05,01,False,2024-08-08_16h32.06.824,Gratings_vis_devJG_v0.6,2024.1.5,None,2024-08-08 16h32.15.286298 -0400,
55,0,55,0,279.8978814999573,,,,,,,,,279.88180179998744,279.9145454999525,282.9147110999329,284.89806869998574,284.89806869998574,284.8814515999984,high,SB05,01,False,2024-08-08_16h32.06.824,Gratings_vis_devJG_v0.6,2024.1.5,None,2024-08-08 16h32.15.286298 -0400,
56,0,56,0,284.89806869998574,,,,,,,,,284.8816963999998,284.91459589998703,287.914716499974,289.8978187999455,289.8978187999455,289.88145609991625,high,SB05,01,False,2024-08-08_16h32.06.824,Gratings_vis_devJG_v0.6,2024.1.5,None,2024-08-08 16h32.15.286298 -0400,
57,0,57,0,289.8978187999455,,,,,,,,,289.88172439998016,289.914470699965,292.91465920000337,294.897941299947,294.897941299947,294.88145999994595,high,SB05,01,False,2024-08-08_16h32.06.824,Gratings_vis_devJG_v0.6,2024.1.5,None,2024-08-08 16h32.15.286298 -0400,
58,0,58,0,294.897941299947,,,,,,,,,294.88171969994437,294.91453559999354,297.9149245999288,299.8978058999637,299.8978058999637,299.881360600004,high,SB05,01,False,2024-08-08_16h32.06.824,Gratings_vis_devJG_v0.6,2024.1.5,None,2024-08-08 16h32.15.286298 -0400,
59,0,59,0,299.8978058999637,,,,,,,,,299.8816238999134,299.914689199999,302.9159598000115,304.8977944999933,304.8977944999933,304.882031599991,high,SB05,01,False,2024-08-08_16h32.06.824,Gratings_vis_devJG_v0.6,2024.1.5,None,2024-08-08 16h32.15.286298 -0400,
60,0,60,0,304.8977944999933,,,,,,,,,304.8822792998981,304.9145504999906,307.9146362999454,309.89777269994374,309.89777269994374,309.8813105999725,high,SB05,01,False,2024-08-08_16h32.06.824,Gratings_vis_devJG_v0.6,2024.1.5,None,2024-08-08 16h32.15.286298 -0400,
61,0,61,0,309.89777269994374,,,,,,,,,309.8815646999283,309.9143966999836,312.9153992999345,314.89858559996355,314.89858559996355,314.8817146999063,high,SB05,01,False,2024-08-08_16h32.06.824,Gratings_vis_devJG_v0.6,2024.1.5,None,2024-08-08 16h32.15.286298 -0400,
62,0,62,0,314.89858559996355,,,,,,,,,314.88198109995574,314.9145667999983,317.91470059996936,319.8982757999329,319.8982757999329,319.88192229997367,high,SB05,01,False,2024-08-08_16h32.06.824,Gratings_vis_devJG_v0.6,2024.1.5,None,2024-08-08 16h32.15.286298 -0400,
63,0,63,0,319.8982757999329,,,,,,,,,319.88217719993554,319.91440959996544,322.9145009999629,324.8976697999751,324.8976697999751,324.88163749990053,high,SB05,01,False,2024-08-08_16h32.06.824,Gratings_vis_devJG_v0.6,2024.1.5,None,2024-08-08 16h32.15.286298 -0400,
64,0,64,0,324.8976697999751,,,,,,,,,324.8818853999255,324.9153602999868,327.91448149993084,329.89763559994753,329.89763559994753,329.88235520001035,high,SB05,01,False,2024-08-08_16h32.06.824,Gratings_vis_devJG_v0.6,2024.1.5,None,2024-08-08 16h32.15.286298 -0400,
65,0,65,0,329.89763559994753,,,,,,,,,329.88259549997747,329.91537899989635,332.91450529999565,334.89760399993975,334.89760399993975,334.8814337999793,high,SB05,01,False,2024-08-08_16h32.06.824,Gratings_vis_devJG_v0.6,2024.1.5,None,2024-08-08 16h32.15.286298 -0400,
66,0,66,0,334.89760399993975,,,,,,,,,334.8816830998985,334.91522590001114,337.9144378999481,339.8975730999373,339.8975730999373,339.8812310999492,high,SB05,01,False,2024-08-08_16h32.06.824,Gratings_vis_devJG_v0.6,2024.1.5,None,2024-08-08 16h32.15.286298 -0400,
67,0,67,0,339.8975730999373,,,,,,,,,339.8814892999362,339.9142293999903,342.9143190999748,344.8975564999273,344.8975564999273,344.8813868999714,high,SB05,01,False,2024-08-08_16h32.06.824,Gratings_vis_devJG_v0.6,2024.1.5,None,2024-08-08 16h32.15.286298 -0400,
68,0,68,0,344.8975564999273,,,,,,,,,344.88162919995375,344.9143296999391,347.91471559996717,349.8976322999224,349.8976322999224,349.8812295999378,high,SB05,01,False,2024-08-08_16h32.06.824,Gratings_vis_devJG_v0.6,2024.1.5,None,2024-08-08 16h32.15.286298 -0400,
69,0,69,0,349.8976322999224,,,,,,,,,349.88146949990187,349.9146784999175,352.91469209990464,354.8975173999788,354.8975173999788,354.8819708999945,high,SB05,01,False,2024-08-08_16h32.06.824,Gratings_vis_devJG_v0.6,2024.1.5,None,2024-08-08 16h32.15.286298 -0400,
70,0,70,0,354.8975173999788,,,,,,,,,354.8822220999282,354.9141922999406,357.91709669993725,359.8975696999114,359.8975696999114,359.88105889991857,high,SB05,01,False,2024-08-08_16h32.06.824,Gratings_vis_devJG_v0.6,2024.1.5,None,2024-08-08 16h32.15.286298 -0400,
71,0,71,0,359.8975696999114,,,,,,,,,359.88131460000295,359.9141472999472,362.9151998999296,364.8975220998982,364.8975220998982,364.88106029992923,high,SB05,01,False,2024-08-08_16h32.06.824,Gratings_vis_devJG_v0.6,2024.1.5,None,2024-08-08 16h32.15.286298 -0400,
72,0,72,0,364.8975220998982,,,,,,,,,364.8813115999801,364.9141164999455,367.9164480000036,369.8975901999511,369.8975901999511,369.8812279999256,high,SB05,01,False,2024-08-08_16h32.06.824,Gratings_vis_devJG_v0.6,2024.1.5,None,2024-08-08 16h32.15.286298 -0400,
73,0,73,0,369.8975901999511,,,,,,,,,369.88147889997344,369.9143974999897,372.9168269999791,374.8977967000101,374.8977967000101,374.88143229996786,high,SB05,01,False,2024-08-08_16h32.06.824,Gratings_vis_devJG_v0.6,2024.1.5,None,2024-08-08 16h32.15.286298 -0400,
74,0,74,0,374.8977967000101,,,,,,,,,374.8816813000012,374.91409420000855,377.91600149997976,379.8977417999413,379.8977417999413,379.8816905999556,high,SB05,01,False,2024-08-08_16h32.06.824,Gratings_vis_devJG_v0.6,2024.1.5,None,2024-08-08 16h32.15.286298 -0400,
75,0,75,0,379.8977417999413,,,,,,,,,379.88193549995776,379.9161037999438,382.91642399993725,384.89827559993137,384.89827559993137,384.88189049996436,high,SB05,01,False,2024-08-08_16h32.06.824,Gratings_vis_devJG_v0.6,2024.1.5,None,2024-08-08 16h32.15.286298 -0400,
76,0,76,0,384.89827559993137,,,,,,,,,384.8821320999414,384.9145113999257,387.91660769993905,389.89819440001156,389.89819440001156,389.88227760000154,high,SB05,01,False,2024-08-08_16h32.06.824,Gratings_vis_devJG_v0.6,2024.1.5,None,2024-08-08 16h32.15.286298 -0400,
77,0,77,0,389.89819440001156,,,,,,,,,389.8828056999482,389.9166869999608,392.91698619991075,394.8984040999785,394.8984040999785,394.8823948999634,high,SB05,01,False,2024-08-08_16h32.06.824,Gratings_vis_devJG_v0.6,2024.1.5,None,2024-08-08 16h32.15.286298 -0400,
78,0,78,0,394.8984040999785,,,,,,,,,394.8826435999945,394.9150587999029,397.91721159999724,399.89916459994856,399.89916459994856,399.88287749991287,high,SB05,01,False,2024-08-08_16h32.06.824,Gratings_vis_devJG_v0.6,2024.1.5,None,2024-08-08 16h32.15.286298 -0400,
79,0,79,0,399.89916459994856,,,,,,,,,399.88311999989673,399.91726329992525,402.91846979991533,404.8971931999549,404.8971931999549,404.8808942999458,high,SB05,01,False,2024-08-08_16h32.06.824,Gratings_vis_devJG_v0.6,2024.1.5,None,2024-08-08 16h32.15.286298 -0400,
80,0,80,0,404.8971931999549,,,,,,,,,404.88114439998753,404.9141765999375,407.91431949997786,409.89727879990824,409.89727879990824,409.8814417999238,high,SB05,01,False,2024-08-08_16h32.06.824,Gratings_vis_devJG_v0.6,2024.1.5,None,2024-08-08 16h32.15.286298 -0400,
81,0,81,0,409.89727879990824,,,,,,,,,409.88171019998845,409.91448329994455,412.91450449998956,414.89712509990204,414.89712509990204,414.8808484999463,high,SB05,01,False,2024-08-08_16h32.06.824,Gratings_vis_devJG_v0.6,2024.1.5,None,2024-08-08 16h32.15.286298 -0400,
82,0,82,0,414.89712509990204,,,,,,,,,414.88110040000174,414.91428069991525,417.91451849997975,419.8970697999466,419.8970697999466,419.8813579999842,high,SB05,01,False,2024-08-08_16h32.06.824,Gratings_vis_devJG_v0.6,2024.1.5,None,2024-08-08 16h32.15.286298 -0400,
83,0,83,0,419.8970697999466,,,,,,,,,419.8816285999492,419.9139845999889,422.9138608999783,424.89763969997875,424.89763969997875,424.8809133999748,high,SB05,01,False,2024-08-08_16h32.06.824,Gratings_vis_devJG_v0.6,2024.1.5,None,2024-08-08 16h32.15.286298 -0400,
84,0,84,0,424.89763969997875,,,,,,,,,424.8811776000075,424.9138482999988,427.91383909992874,429.8973045999883,429.8973045999883,429.880852399976,high,SB05,01,False,2024-08-08_16h32.06.824,Gratings_vis_devJG_v0.6,2024.1.5,None,2024-08-08 16h32.15.286298 -0400,
85,0,85,0,429.8973045999883,,,,,,,,,429.8811992999399,429.9138702999335,432.91418189997785,434.89704999991227,434.89704999991227,434.88075619994197,high,SB05,01,False,2024-08-08_16h32.06.824,Gratings_vis_devJG_v0.6,2024.1.5,None,2024-08-08 16h32.15.286298 -0400,
86,0,86,0,434.89704999991227,,,,,,,,,434.8810015999479,434.9137656999519,437.91388309991453,439.89708649995737,439.89708649995737,439.8806233999785,high,SB05,01,False,2024-08-08_16h32.06.824,Gratings_vis_devJG_v0.6,2024.1.5,None,2024-08-08 16h32.15.286298 -0400,
87,0,87,0,439.89708649995737,,,,,,,,,439.88086799997836,439.9137400999898,442.91379639995284,444.8971142999362,444.8971142999362,444.8807622999884,high,SB05,01,False,2024-08-08_16h32.06.824,Gratings_vis_devJG_v0.6,2024.1.5,None,2024-08-08 16h32.15.286298 -0400,
88,0,88,0,444.8971142999362,,,,,,,,,444.88101079990156,444.9137041999493,447.9137964999536,449.8975952999899,449.8975952999899,449.88110679993406,high,SB05,01,False,2024-08-08_16h32.06.824,Gratings_vis_devJG_v0.6,2024.1.5,None,2024-08-08 16h32.15.286298 -0400,
89,0,89,0,449.8975952999899,,,,,,,,,449.8813619998982,449.9142197999172,452.9138030000031,454.8970762999961,454.8970762999961,454.8806003999198,high,SB05,01,False,2024-08-08_16h32.06.824,Gratings_vis_devJG_v0.6,2024.1.5,None,2024-08-08 16h32.15.286298 -0400,
90,0,90,0,454.8970762999961,,,,,,,,,454.88085999991745,454.9142422999721,457.91415470000356,459.89700319990516,459.89700319990516,459.8806531999726,high,SB05,01,False,2024-08-08_16h32.06.824,Gratings_vis_devJG_v0.6,2024.1.5,None,2024-08-08 16h32.15.286298 -0400,
91,0,91,0,459.89700319990516,,,,,,,,,459.8809010999976,459.9136570999399,462.9138072999194,464.89749189990107,464.89749189990107,464.8807325999951,high,SB05,01,False,2024-08-08_16h32.06.824,Gratings_vis_devJG_v0.6,2024.1.5,None,2024-08-08 16h32.15.286298 -0400,
92,0,92,0,464.89749189990107,,,,,,,,,464.8810129999183,464.9141160999425,467.91372369998135,469.89749529992696,469.89749529992696,469.88053349999245,high,SB05,01,False,2024-08-08_16h32.06.824,Gratings_vis_devJG_v0.6,2024.1.5,None,2024-08-08 16h32.15.286298 -0400,
93,0,93,0,469.89749529992696,,,,,,,,,469.88079249998555,469.9139501999598,472.91410479997285,474.89690159994643,474.89690159994643,474.880570899928,high,SB05,01,False,2024-08-08_16h32.06.824,Gratings_vis_devJG_v0.6,2024.1.5,None,2024-08-08 16h32.15.286298 -0400,
94,0,94,0,474.89690159994643,,,,,,,,,474.88082590000704,474.91352729999926,477.9136329999892,479.8974077999592,479.8974077999592,479.88143229996786,high,SB05,01,False,2024-08-08_16h32.06.824,Gratings_vis_devJG_v0.6,2024.1.5,None,2024-08-08 16h32.15.286298 -0400,
95,0,95,0,479.8974077999592,,,,,,,,,479.8816908999579,479.91388949996326,482.91363799991086,484.8968602999812,484.8968602999812,484.88052010000683,high,SB05,01,False,2024-08-08_16h32.06.824,Gratings_vis_devJG_v0.6,2024.1.5,None,2024-08-08 16h32.15.286298 -0400,
96,0,96,0,484.8968602999812,,,,,,,,,484.88076869992074,484.9135294998996,487.91396199993324,489.8973808999872,489.8973808999872,489.8809684999287,high,SB05,01,False,2024-08-08_16h32.06.824,Gratings_vis_devJG_v0.6,2024.1.5,None,2024-08-08 16h32.15.286298 -0400,
97,0,97,0,489.8973808999872,,,,,,,,,489.881216699956,489.91389570001047,492.91360589989927,494.89701409998816,494.89701409998816,494.8805172999855,high,SB05,01,False,2024-08-08_16h32.06.824,Gratings_vis_devJG_v0.6,2024.1.5,None,2024-08-08 16h32.15.286298 -0400,
98,0,98,0,494.89701409998816,,,,,,,,,494.880765000009,494.9134159999667,497.9138831999153,499.8972472999012,499.8972472999012,499.8820011999924,high,SB05,01,False,2024-08-08_16h32.06.824,Gratings_vis_devJG_v0.6,2024.1.5,None,2024-08-08 16h32.15.286298 -0400,
99,0,99,0,499.8972472999012,,,,,,,,,499.8824762000004,499.91399119992275,502.91368869994767,504.89674120000564,504.89674120000564,504.8804349999409,high,SB05,01,False,2024-08-08_16h32.06.824,Gratings_vis_devJG_v0.6,2024.1.5,None,2024-08-08 16h32.15.286298 -0400,
100,0,100,0,504.89674120000564,,,,,,,,,504.8806838999735,504.91343829990365,507.91354949993547,509.8968247999437,509.8968247999437,509.8805071999086,high,SB05,01,False,2024-08-08_16h32.06.824,Gratings_vis_devJG_v0.6,2024.1.5,None,2024-08-08 16h32.15.286298 -0400,
101,0,101,0,509.8968247999437,,,,,,,,,509.88076999993064,509.9134562999243,512.9134632999776,514.8967220999766,514.8967220999766,514.8803786999779,high,SB05,01,False,2024-08-08_16h32.06.824,Gratings_vis_devJG_v0.6,2024.1.5,None,2024-08-08 16h32.15.286298 -0400,
102,0,102,0,514.8967220999766,,,,,,,,,514.8806420000037,514.913385599968,517.9133942999179,519.8966671999078,519.8966671999078,519.880914999987,high,SB05,01,False,2024-08-08_16h32.06.824,Gratings_vis_devJG_v0.6,2024.1.5,None,2024-08-08 16h32.15.286298 -0400,
103,0,103,0,519.8966671999078,,,,,,,,,519.8811636999017,519.9135482999263,522.9132877999218,524.8966715999413,524.8966715999413,524.8813839999493,high,SB05,01,False,2024-08-08_16h32.06.824,Gratings_vis_devJG_v0.6,2024.1.5,None,2024-08-08 16h32.15.286298 -0400,
104,0,104,0,524.8966715999413,,,,,,,,,524.8818800000008,524.9133167999098,527.9133891999954,529.8972619000124,529.8972619000124,529.8803919999627,high,SB05,01,False,2024-08-08_16h32.06.824,Gratings_vis_devJG_v0.6,2024.1.5,None,2024-08-08 16h32.15.286298 -0400,
105,0,105,0,529.8972619000124,,,,,,,,,529.8806481999345,529.9131963999243,532.9134174999781,534.8966525999131,534.8966525999131,534.8803501999937,high,SB05,01,False,2024-08-08_16h32.06.824,Gratings_vis_devJG_v0.6,2024.1.5,None,2024-08-08 16h32.15.286298 -0400,
106,0,106,0,534.8966525999131,,,,,,,,,534.8806084999815,534.9132639999734,537.9133878999855,539.8965614999179,539.8965614999179,539.8802497999277,high,SB05,01,False,2024-08-08_16h32.06.824,Gratings_vis_devJG_v0.6,2024.1.5,None,2024-08-08 16h32.15.286298 -0400,
107,0,107,0,539.8965614999179,,,,,,,,,539.8805164999794,539.9131468998967,542.9132969999919,544.8965783999301,544.8965783999301,544.8804209999507,high,SB05,01,False,2024-08-08_16h32.06.824,Gratings_vis_devJG_v0.6,2024.1.5,None,2024-08-08 16h32.15.286298 -0400,
108,0,108,0,544.8965783999301,,,,,,,,,544.8806949999416,544.9131873999722,547.9132530000061,549.8965023999335,549.8965023999335,549.8805625999812,high,SB05,01,False,2024-08-08_16h32.06.824,Gratings_vis_devJG_v0.6,2024.1.5,None,2024-08-08 16h32.15.286298 -0400,
109,0,109,0,549.8965023999335,,,,,,,,,549.8808343999553,549.9131525999401,552.9132461999543,554.8964605999645,554.8964605999645,554.8801144999452,high,SB05,01,False,2024-08-08_16h32.06.824,Gratings_vis_devJG_v0.6,2024.1.5,None,2024-08-08 16h32.15.286298 -0400,
110,0,110,0,554.8964605999645,,,,,,,,,554.880390199949,554.9130952999694,557.9134550999152,559.8964206000092,559.8964206000092,559.8800718999701,high,SB05,01,False,2024-08-08_16h32.06.824,Gratings_vis_devJG_v0.6,2024.1.5,None,2024-08-08 16h32.15.286298 -0400,
111,0,111,0,559.8964206000092,,,,,,,,,559.8803412999259,559.9131165998988,562.913387299981,564.8964302999666,564.8964302999666,564.8804681999609,high,SB05,01,False,2024-08-08_16h32.06.824,Gratings_vis_devJG_v0.6,2024.1.5,None,2024-08-08 16h32.15.286298 -0400,
112,0,112,0,564.8964302999666,,,,,,,,,564.880719000008,564.9130693000043,567.9131885999814,569.8964838999091,569.8964838999091,569.8802017999114,high,SB05,01,False,2024-08-08_16h32.06.824,Gratings_vis_devJG_v0.6,2024.1.5,None,2024-08-08 16h32.15.286298 -0400,
113,0,113,0,569.8964838999091,,,,,,,,,569.8804487999296,569.9130485999631,572.9131614000071,574.8963502999395,574.8963502999395,574.8800996999489,high,SB05,01,False,2024-08-08_16h32.06.824,Gratings_vis_devJG_v0.6,2024.1.5,None,2024-08-08 16h32.15.286298 -0400,
114,0,114,0,574.8963502999395,,,,,,,,,574.8803791999817,574.913023000001,577.9131383999484,579.8963224999607,579.8963224999607,579.880019199918,high,SB05,01,False,2024-08-08_16h32.06.824,Gratings_vis_devJG_v0.6,2024.1.5,None,2024-08-08 16h32.15.286298 -0400,
115,0,115,0,579.8963224999607,,,,,,,,,579.8802701999666,579.9130117999157,582.9131561999675,584.8963728999952,584.8963728999952,584.880358299939,high,SB05,01,False,2024-08-08_16h32.06.824,Gratings_vis_devJG_v0.6,2024.1.5,None,2024-08-08 16h32.15.286298 -0400,
116,0,116,0,584.8963728999952,,,,,,,,,584.8806175999343,584.913133099908,587.9131574999774,589.8963037999347,589.8963037999347,589.8800711999647,high,SB05,01,False,2024-08-08_16h32.06.824,Gratings_vis_devJG_v0.6,2024.1.5,None,2024-08-08 16h32.15.286298 -0400,
117,0,117,0,589.8963037999347,,,,,,,,,589.880325099919,589.9129210999236,592.9131314000115,594.8963176999241,594.8963176999241,594.8807294999715,high,SB05,01,False,2024-08-08_16h32.06.824,Gratings_vis_devJG_v0.6,2024.1.5,None,2024-08-08 16h32.15.286298 -0400,
118,0,118,0,594.8963176999241,,,,,,,,,594.8809883999638,594.9129073999356,597.9131158000091,599.896210399922,599.896210399922,599.8798898999812,high,SB05,01,False,2024-08-08_16h32.06.824,Gratings_vis_devJG_v0.6,2024.1.5,None,2024-08-08 16h32.15.286298 -0400,
119,0,119,0,599.896210399922,,,,,,,,,599.880142299924,599.91287739994,602.9130931999534,604.9156563999131,604.9156563999131,604.8801330999704,high,SB05,01,False,2024-08-08_16h32.06.824,Gratings_vis_devJG_v0.6,2024.1.5,None,2024-08-08 16h32.15.286298 -0400,
