trials.thisRepN,trials.thisTrialN,trials.thisN,trials.thisIndex,thisRow.t,notes,nidaqTrigger.started,text_waiting_message.started,key_resp.started,nidaqTrigger.stopped,key_resp.keys,key_resp.rt,key_resp.duration,display_gratings.started,stim_grayScreen.started,stim_grating.started,stim_grayScreen.stopped,stim_grating.stopped,display_gratings.stopped,Protocol ID,Subject ID,Session ID,Wait for Trigger,date,expName,psychopyVersion,frameRate,expStart,
,,,,,,0.09736989997327328,0.09957479999866337,0.09957479999866337,6.3947808999801055,space,6.291098500019871,None,,,,,,,FOV2,GS16,01,False,2024-08-03_19h11.07.530,Gratings_vis_devJG_v0.6,2024.1.5,None,2024-08-03 19h11.37.251584 -0400,
0,0,0,0,6.438047299976461,,,,,,,,,6.4361372999846935,6.438047299976461,9.44225889997324,11.425605500000529,11.425605500000529,11.409539900021628,FOV2,GS16,01,False,2024-08-03_19h11.07.530,Gratings_vis_devJG_v0.6,2024.1.5,None,2024-08-03 19h11.37.251584 -0400,
1,0,1,0,11.425605500000529,,,,,,,,,11.409716899972409,11.442288600024767,14.442480100027751,16.42593399999896,16.42593399999896,16.41178329999093,FOV2,GS16,01,False,2024-08-03_19h11.07.530,Gratings_vis_devJG_v0.6,2024.1.5,None,2024-08-03 19h11.37.251584 -0400,
2,0,2,0,16.42593399999896,,,,,,,,,16.41195909999078,16.444477599987295,19.442893899977207,21.425920000008773,21.425920000008773,21.40973810001742,FOV2,GS16,01,False,2024-08-03_19h11.07.530,Gratings_vis_devJG_v0.6,2024.1.5,None,2024-08-03 19h11.37.251584 -0400,
3,0,3,0,21.425920000008773,,,,,,,,,21.409913400013465,21.442456100019626,24.442633100028615,26.42576509999344,26.42576509999344,26.409338400000706,FOV2,GS16,01,False,2024-08-03_19h11.07.530,Gratings_vis_devJG_v0.6,2024.1.5,None,2024-08-03 19h11.37.251584 -0400,
4,0,4,0,26.42576509999344,,,,,,,,,26.409522200003266,26.44255759997759,29.442609200021252,31.42570219998015,31.42570219998015,31.40961089998018,FOV2,GS16,01,False,2024-08-03_19h11.07.530,Gratings_vis_devJG_v0.6,2024.1.5,None,2024-08-03 19h11.37.251584 -0400,
5,0,5,0,31.42570219998015,,,,,,,,,31.40980760002276,31.4425981999957,34.44266040000366,36.426131499989424,36.426131499989424,36.40926889999537,FOV2,GS16,01,False,2024-08-03_19h11.07.530,Gratings_vis_devJG_v0.6,2024.1.5,None,2024-08-03 19h11.37.251584 -0400,
6,0,6,0,36.426131499989424,,,,,,,,,36.40944800002035,36.442434999975376,39.442811299988534,41.425682300003245,41.425682300003245,41.40921349998098,FOV2,GS16,01,False,2024-08-03_19h11.07.530,Gratings_vis_devJG_v0.6,2024.1.5,None,2024-08-03 19h11.37.251584 -0400,
7,0,7,0,41.425682300003245,,,,,,,,,41.409408600011375,41.442380300024524,44.443108599982224,46.42564059997676,46.42564059997676,46.40926019998733,FOV2,GS16,01,False,2024-08-03_19h11.07.530,Gratings_vis_devJG_v0.6,2024.1.5,None,2024-08-03 19h11.37.251584 -0400,
8,0,8,0,46.42564059997676,,,,,,,,,46.40946250001434,46.44230549997883,49.44341519998852,51.4256034999853,51.4256034999853,51.40981769998325,FOV2,GS16,01,False,2024-08-03_19h11.07.530,Gratings_vis_devJG_v0.6,2024.1.5,None,2024-08-03 19h11.37.251584 -0400,
9,0,9,0,51.4256034999853,,,,,,,,,51.41000899998471,51.442413399985526,54.44366789999185,56.42558729997836,56.42558729997836,56.40914529998554,FOV2,GS16,01,False,2024-08-03_19h11.07.530,Gratings_vis_devJG_v0.6,2024.1.5,None,2024-08-03 19h11.37.251584 -0400,
10,0,10,0,56.42558729997836,,,,,,,,,56.40933120000409,56.44226450001588,59.443910599977244,61.42595140001504,61.42595140001504,61.41002710000612,FOV2,GS16,01,False,2024-08-03_19h11.07.530,Gratings_vis_devJG_v0.6,2024.1.5,None,2024-08-03 19h11.37.251584 -0400,
11,0,11,0,61.42595140001504,,,,,,,,,61.41023949999362,61.442554600012954,64.44422790000681,66.4262140999781,66.4262140999781,66.41008369997144,FOV2,GS16,01,False,2024-08-03_19h11.07.530,Gratings_vis_devJG_v0.6,2024.1.5,None,2024-08-03 19h11.37.251584 -0400,
12,0,12,0,66.4262140999781,,,,,,,,,66.41026919998694,66.44281199999386,69.44450440001674,71.42649550002534,71.42649550002534,71.40894649998518,FOV2,GS16,01,False,2024-08-03_19h11.07.530,Gratings_vis_devJG_v0.6,2024.1.5,None,2024-08-03 19h11.37.251584 -0400,
13,0,13,0,71.42649550002534,,,,,,,,,71.40913450001972,71.44315339997411,74.44261049997294,76.42551480000839,76.42551480000839,76.40891260001808,FOV2,GS16,01,False,2024-08-03_19h11.07.530,Gratings_vis_devJG_v0.6,2024.1.5,None,2024-08-03 19h11.37.251584 -0400,
14,0,14,0,76.42551480000839,,,,,,,,,76.40910240000812,76.44215660000918,79.44225770002231,81.42540000000736,81.42540000000736,81.40897069999482,FOV2,GS16,01,False,2024-08-03_19h11.07.530,Gratings_vis_devJG_v0.6,2024.1.5,None,2024-08-03 19h11.37.251584 -0400,
15,0,15,0,81.42540000000736,,,,,,,,,81.40915269998368,81.44204930000706,84.44220759999007,86.42528119997587,86.42528119997587,86.40935119998176,FOV2,GS16,01,False,2024-08-03_19h11.07.530,Gratings_vis_devJG_v0.6,2024.1.5,None,2024-08-03 19h11.37.251584 -0400,
16,0,16,0,86.42528119997587,,,,,,,,,86.40953750000335,86.44195110001601,89.4425092000165,91.42528730002232,91.42528730002232,91.4088290000218,FOV2,GS16,01,False,2024-08-03_19h11.07.530,Gratings_vis_devJG_v0.6,2024.1.5,None,2024-08-03 19h11.37.251584 -0400,
17,0,17,0,91.42528730002232,,,,,,,,,91.40902080002706,91.44200290000299,94.44236500002444,96.42530359997181,96.42530359997181,96.40882469998905,FOV2,GS16,01,False,2024-08-03_19h11.07.530,Gratings_vis_devJG_v0.6,2024.1.5,None,2024-08-03 19h11.37.251584 -0400,
18,0,18,0,96.42530359997181,,,,,,,,,96.40902309998637,96.44209740002407,99.44211860001087,101.42526430002181,101.42526430002181,101.40891120000742,FOV2,GS16,01,False,2024-08-03_19h11.07.530,Gratings_vis_devJG_v0.6,2024.1.5,None,2024-08-03 19h11.37.251584 -0400,
19,0,19,0,101.42526430002181,,,,,,,,,101.40911429998232,101.44203769997694,104.44233400002122,106.42533930001082,106.42533930001082,106.40885780000826,FOV2,GS16,01,False,2024-08-03_19h11.07.530,Gratings_vis_devJG_v0.6,2024.1.5,None,2024-08-03 19h11.37.251584 -0400,
20,0,20,0,106.42533930001082,,,,,,,,,106.40905040001962,106.44204619998345,109.44214870000724,111.42529629997443,111.42529629997443,111.40876889997162,FOV2,GS16,01,False,2024-08-03_19h11.07.530,Gratings_vis_devJG_v0.6,2024.1.5,None,2024-08-03 19h11.37.251584 -0400,
21,0,21,0,111.42529629997443,,,,,,,,,111.40896949998569,111.44200360000832,114.44203570001991,116.42526320001343,116.42526320001343,116.40873229998397,FOV2,GS16,01,False,2024-08-03_19h11.07.530,Gratings_vis_devJG_v0.6,2024.1.5,None,2024-08-03 19h11.37.251584 -0400,
22,0,22,0,116.42526320001343,,,,,,,,,116.40891649998957,116.44190909998724,119.44197970000096,121.42522719997214,121.42522719997214,121.40910900000017,FOV2,GS16,01,False,2024-08-03_19h11.07.530,Gratings_vis_devJG_v0.6,2024.1.5,None,2024-08-03 19h11.37.251584 -0400,
23,0,23,0,121.42522719997214,,,,,,,,,121.40929540002253,121.44196229998488,124.44195489998674,126.42521549999947,126.42521549999947,126.40904360002605,FOV2,GS16,01,False,2024-08-03_19h11.07.530,Gratings_vis_devJG_v0.6,2024.1.5,None,2024-08-03 19h11.37.251584 -0400,
24,0,24,0,126.42521549999947,,,,,,,,,126.40923049999401,126.44187119998969,129.442371800018,131.42520629998762,131.42520629998762,131.40870059997542,FOV2,GS16,01,False,2024-08-03_19h11.07.530,Gratings_vis_devJG_v0.6,2024.1.5,None,2024-08-03 19h11.37.251584 -0400,
25,0,25,0,131.42520629998762,,,,,,,,,131.40889929997502,131.44196389999706,134.44220920000225,136.42526709998492,136.42526709998492,136.4090237999917,FOV2,GS16,01,False,2024-08-03_19h11.07.530,Gratings_vis_devJG_v0.6,2024.1.5,None,2024-08-03 19h11.37.251584 -0400,
26,0,26,0,136.42526709998492,,,,,,,,,136.40920900000492,136.44180500000948,139.44201130000874,141.42515530000674,141.42515530000674,141.4090747999726,FOV2,GS16,01,False,2024-08-03_19h11.07.530,Gratings_vis_devJG_v0.6,2024.1.5,None,2024-08-03 19h11.37.251584 -0400,
27,0,27,0,141.42515530000674,,,,,,,,,141.40925010002684,141.44177809997927,144.44188170001144,146.42540180002106,146.42540180002106,146.4087163999793,FOV2,GS16,01,False,2024-08-03_19h11.07.530,Gratings_vis_devJG_v0.6,2024.1.5,None,2024-08-03 19h11.37.251584 -0400,
28,0,28,0,146.42540180002106,,,,,,,,,146.4088970000157,146.4417554999818,149.44186570000602,151.4250804000185,151.4250804000185,151.40900709998095,FOV2,GS16,01,False,2024-08-03_19h11.07.530,Gratings_vis_devJG_v0.6,2024.1.5,None,2024-08-03 19h11.37.251584 -0400,
29,0,29,0,151.4250804000185,,,,,,,,,151.40919269999722,151.44170079997275,154.4419185000006,156.42508439999074,156.42508439999074,156.40896049997536,FOV2,GS16,01,False,2024-08-03_19h11.07.530,Gratings_vis_devJG_v0.6,2024.1.5,None,2024-08-03 19h11.37.251584 -0400,
30,0,30,0,156.42508439999074,,,,,,,,,156.4091373999836,156.44170720002148,159.44186179997632,161.42499129998032,161.42499129998032,161.40858659998048,FOV2,GS16,01,False,2024-08-03_19h11.07.530,Gratings_vis_devJG_v0.6,2024.1.5,None,2024-08-03 19h11.37.251584 -0400,
31,0,31,0,161.42499129998032,,,,,,,,,161.40878360002534,161.44167209998704,164.44196700002067,166.42505429999437,166.42505429999437,166.40860279998742,FOV2,GS16,01,False,2024-08-03_19h11.07.530,Gratings_vis_devJG_v0.6,2024.1.5,None,2024-08-03 19h11.37.251584 -0400,
32,0,32,0,166.42505429999437,,,,,,,,,166.40877759997966,166.44166539999424,169.44174450001447,171.42492820002371,171.42492820002371,171.40892179997172,FOV2,GS16,01,False,2024-08-03_19h11.07.530,Gratings_vis_devJG_v0.6,2024.1.5,None,2024-08-03 19h11.37.251584 -0400,
33,0,33,0,171.42492820002371,,,,,,,,,171.40909630001988,171.44164360000286,174.44168940000236,176.4249982999754,176.4249982999754,176.4087832000223,FOV2,GS16,01,False,2024-08-03_19h11.07.530,Gratings_vis_devJG_v0.6,2024.1.5,None,2024-08-03 19h11.37.251584 -0400,
34,0,34,0,176.4249982999754,,,,,,,,,176.40896400000202,176.4417878999957,179.44177109998418,181.4249312999891,181.4249312999891,181.4084919000161,FOV2,GS16,01,False,2024-08-03_19h11.07.530,Gratings_vis_devJG_v0.6,2024.1.5,None,2024-08-03 19h11.37.251584 -0400,
35,0,35,0,181.4249312999891,,,,,,,,,181.40868340001907,181.44157119997544,184.4416461000219,186.42485870001838,186.42485870001838,186.40842499997234,FOV2,GS16,01,False,2024-08-03_19h11.07.530,Gratings_vis_devJG_v0.6,2024.1.5,None,2024-08-03 19h11.37.251584 -0400,
36,0,36,0,186.42485870001838,,,,,,,,,186.4086092999787,186.44173219997901,189.44161899999017,191.42502349999268,191.42502349999268,191.40877239999827,FOV2,GS16,01,False,2024-08-03_19h11.07.530,Gratings_vis_devJG_v0.6,2024.1.5,None,2024-08-03 19h11.37.251584 -0400,
37,0,37,0,191.42502349999268,,,,,,,,,191.40894950000802,191.44153630000073,194.4416901000077,196.4248477999936,196.4248477999936,196.40903789998265,FOV2,GS16,01,False,2024-08-03_19h11.07.530,Gratings_vis_devJG_v0.6,2024.1.5,None,2024-08-03 19h11.37.251584 -0400,
38,0,38,0,196.4248477999936,,,,,,,,,196.40923170000315,196.44151350000175,199.4416276999982,201.42494469997473,201.42494469997473,201.40838590002386,FOV2,GS16,01,False,2024-08-03_19h11.07.530,Gratings_vis_devJG_v0.6,2024.1.5,None,2024-08-03 19h11.37.251584 -0400,
39,0,39,0,201.42494469997473,,,,,,,,,201.40857430000324,201.44143070001155,204.44157939997967,206.42481039999984,206.42481039999984,206.4084000000148,FOV2,GS16,01,False,2024-08-03_19h11.07.530,Gratings_vis_devJG_v0.6,2024.1.5,None,2024-08-03 19h11.37.251584 -0400,
40,0,40,0,206.42481039999984,,,,,,,,,206.40858869999647,206.44145350001054,209.44163309998112,211.42473570001312,211.42473570001312,211.40831889997935,FOV2,GS16,01,False,2024-08-03_19h11.07.530,Gratings_vis_devJG_v0.6,2024.1.5,None,2024-08-03 19h11.37.251584 -0400,
41,0,41,0,211.42473570001312,,,,,,,,,211.4084964999929,211.44171320000896,214.44156180002028,216.42472830001498,216.42472830001498,216.40861360001145,FOV2,GS16,01,False,2024-08-03_19h11.07.530,Gratings_vis_devJG_v0.6,2024.1.5,None,2024-08-03 19h11.37.251584 -0400,
42,0,42,0,216.42472830001498,,,,,,,,,216.40879209997365,216.44136340002296,219.44160269998247,221.42470319999848,221.42470319999848,221.40826100000413,FOV2,GS16,01,False,2024-08-03_19h11.07.530,Gratings_vis_devJG_v0.6,2024.1.5,None,2024-08-03 19h11.37.251584 -0400,
43,0,43,0,221.42470319999848,,,,,,,,,221.40844249998918,221.44141680002213,224.44158599997172,226.42465699999593,226.42465699999593,226.40822400001343,FOV2,GS16,01,False,2024-08-03_19h11.07.530,Gratings_vis_devJG_v0.6,2024.1.5,None,2024-08-03 19h11.37.251584 -0400,
44,0,44,0,226.42465699999593,,,,,,,,,226.40840660000686,226.4413598999963,229.44151530001545,231.42467590002343,231.42467590002343,231.40824159997283,FOV2,GS16,01,False,2024-08-03_19h11.07.530,Gratings_vis_devJG_v0.6,2024.1.5,None,2024-08-03 19h11.37.251584 -0400,
45,0,45,0,231.42467590002343,,,,,,,,,231.4084175999742,231.44141680002213,234.44150570000056,236.4246377000236,236.4246377000236,236.4081673999899,FOV2,GS16,01,False,2024-08-03_19h11.07.530,Gratings_vis_devJG_v0.6,2024.1.5,None,2024-08-03 19h11.37.251584 -0400,
46,0,46,0,236.4246377000236,,,,,,,,,236.4083555000252,236.4412760999985,239.44148370000767,241.42463239998324,241.42463239998324,241.4081678999937,FOV2,GS16,01,False,2024-08-03_19h11.07.530,Gratings_vis_devJG_v0.6,2024.1.5,None,2024-08-03 19h11.37.251584 -0400,
47,0,47,0,241.42463239998324,,,,,,,,,241.40834660001565,241.4412972999853,244.44141989998752,246.4246717999922,246.4246717999922,246.40821540000616,FOV2,GS16,01,False,2024-08-03_19h11.07.530,Gratings_vis_devJG_v0.6,2024.1.5,None,2024-08-03 19h11.37.251584 -0400,
48,0,48,0,246.4246717999922,,,,,,,,,246.4084225000115,246.44119129999308,249.44141720002517,251.424534699996,251.424534699996,251.40816420002375,FOV2,GS16,01,False,2024-08-03_19h11.07.530,Gratings_vis_devJG_v0.6,2024.1.5,None,2024-08-03 19h11.37.251584 -0400,
49,0,49,0,251.424534699996,,,,,,,,,251.4083510999917,251.4412602999946,254.44140800001333,256.42454229999566,256.42454229999566,256.4080811999738,FOV2,GS16,01,False,2024-08-03_19h11.07.530,Gratings_vis_devJG_v0.6,2024.1.5,None,2024-08-03 19h11.37.251584 -0400,
50,0,50,0,256.42454229999566,,,,,,,,,256.40827080002055,256.4411623000051,259.44135719997576,261.42463650001446,261.42463650001446,261.4080656999722,FOV2,GS16,01,False,2024-08-03_19h11.07.530,Gratings_vis_devJG_v0.6,2024.1.5,None,2024-08-03 19h11.37.251584 -0400,
51,0,51,0,261.42463650001446,,,,,,,,,261.4082543000113,261.4411406000145,264.44198699999833,266.42446090001613,266.42446090001613,266.40838929999154,FOV2,GS16,01,False,2024-08-03_19h11.07.530,Gratings_vis_devJG_v0.6,2024.1.5,None,2024-08-03 19h11.37.251584 -0400,
52,0,52,0,266.42446090001613,,,,,,,,,266.4085679000127,266.4411373999901,269.4418896000134,271.4244510999997,271.4244510999997,271.4080336000188,FOV2,GS16,01,False,2024-08-03_19h11.07.530,Gratings_vis_devJG_v0.6,2024.1.5,None,2024-08-03 19h11.37.251584 -0400,
53,0,53,0,271.4244510999997,,,,,,,,,271.4082319000154,271.4411198999733,274.44137219997356,276.42452270002104,276.42452270002104,276.4079971999745,FOV2,GS16,01,False,2024-08-03_19h11.07.530,Gratings_vis_devJG_v0.6,2024.1.5,None,2024-08-03 19h11.37.251584 -0400,
54,0,54,0,276.42452270002104,,,,,,,,,276.40818259998923,276.44110880000517,279.44133030000376,281.42465569998603,281.42465569998603,281.40794140001526,FOV2,GS16,01,False,2024-08-03_19h11.07.530,Gratings_vis_devJG_v0.6,2024.1.5,None,2024-08-03 19h11.37.251584 -0400,
55,0,55,0,281.42465569998603,,,,,,,,,281.40812540001934,281.44153289997485,284.4412565000239,286.42435679998016,286.42435679998016,286.4079132999759,FOV2,GS16,01,False,2024-08-03_19h11.07.530,Gratings_vis_devJG_v0.6,2024.1.5,None,2024-08-03 19h11.37.251584 -0400,
56,0,56,0,286.42435679998016,,,,,,,,,286.408091099991,286.44263379997574,289.4412150999997,291.4243060000008,291.4243060000008,291.4078517999733,FOV2,GS16,01,False,2024-08-03_19h11.07.530,Gratings_vis_devJG_v0.6,2024.1.5,None,2024-08-03 19h11.37.251584 -0400,
57,0,57,0,291.4243060000008,,,,,,,,,291.4080257000169,291.44176680000965,294.4411954000243,296.424291000003,296.424291000003,296.4078344000154,FOV2,GS16,01,False,2024-08-03_19h11.07.530,Gratings_vis_devJG_v0.6,2024.1.5,None,2024-08-03 19h11.37.251584 -0400,
58,0,58,0,296.424291000003,,,,,,,,,296.4080126999761,296.44095700001344,299.44111770001473,301.42430150002474,301.42430150002474,301.4091619999963,FOV2,GS16,01,False,2024-08-03_19h11.07.530,Gratings_vis_devJG_v0.6,2024.1.5,None,2024-08-03 19h11.37.251584 -0400,
59,0,59,0,301.42430150002474,,,,,,,,,301.4093502999749,301.4409148999839,304.44112749997294,306.4337287999806,306.4337287999806,306.40792720002355,FOV2,GS16,01,False,2024-08-03_19h11.07.530,Gratings_vis_devJG_v0.6,2024.1.5,None,2024-08-03 19h11.37.251584 -0400,
