trials.thisRepN,trials.thisTrialN,trials.thisN,trials.thisIndex,thisRow.t,notes,nidaqTrigger.started,text_waiting_message.started,key_resp.started,nidaqTrigger.stopped,key_resp.keys,key_resp.rt,key_resp.duration,display_gratings.started,stim_grayScreen.started,stim_grating.started,stim_grayScreen.stopped,stim_grating.stopped,display_gratings.stopped,Protocol ID,Subject ID,Session ID,Wait for Trigger,date,expName,psychopyVersion,frameRate,expStart,
,,,,,,0.006956400000490248,0.016706999973393977,0.016706999973393977,7.243895899970084,space,7.197283199988306,None,,,,,,,baseline,GS15,01,False,2024-08-05_16h43.36.580,Gratings_vis_devJG_v0.6,2024.1.5,None,2024-08-05 16h43.46.371772 -0400,
0,0,0,0,7.827763700042851,,,,,,,,,7.826195199973881,7.827763700042851,10.833141900016926,12.81686629995238,12.81686629995238,12.80121359997429,baseline,GS15,01,False,2024-08-05_16h43.36.580,Gratings_vis_devJG_v0.6,2024.1.5,None,2024-08-05 16h43.46.371772 -0400,
1,0,1,0,12.81686629995238,,,,,,,,,12.801653199945576,12.833469099947251,15.834942499990575,17.816905500018038,17.816905500018038,17.800857299938798,baseline,GS15,01,False,2024-08-05_16h43.36.580,Gratings_vis_devJG_v0.6,2024.1.5,None,2024-08-05 16h43.46.371772 -0400,
2,0,2,0,17.816905500018038,,,,,,,,,17.8011061999714,17.833601500024088,20.83376720000524,22.816884299973026,22.816884299973026,22.800421899999492,baseline,GS15,01,False,2024-08-05_16h43.36.580,Gratings_vis_devJG_v0.6,2024.1.5,None,2024-08-05 16h43.46.371772 -0400,
3,0,3,0,22.816884299973026,,,,,,,,,22.800687900045887,22.833582799998112,25.83404009998776,27.816862800042145,27.816862800042145,27.800418499973603,baseline,GS15,01,False,2024-08-05_16h43.36.580,Gratings_vis_devJG_v0.6,2024.1.5,None,2024-08-05 16h43.46.371772 -0400,
4,0,4,0,27.816862800042145,,,,,,,,,27.80066079995595,27.833535599987954,30.833864699932747,32.816847900045104,32.816847900045104,32.8005224999506,baseline,GS15,01,False,2024-08-05_16h43.36.580,Gratings_vis_devJG_v0.6,2024.1.5,None,2024-08-05 16h43.46.371772 -0400,
5,0,5,0,32.816847900045104,,,,,,,,,32.80078159994446,32.83351120003499,35.83382229995914,37.816957799950615,37.816957799950615,37.80040489998646,baseline,GS15,01,False,2024-08-05_16h43.36.580,Gratings_vis_devJG_v0.6,2024.1.5,None,2024-08-05 16h43.46.371772 -0400,
6,0,6,0,37.816957799950615,,,,,,,,,37.800648499978706,37.83346670004539,40.8336294000037,42.81685269996524,42.81685269996524,42.80040049995296,baseline,GS15,01,False,2024-08-05_16h43.36.580,Gratings_vis_devJG_v0.6,2024.1.5,None,2024-08-05 16h43.46.371772 -0400,
7,0,7,0,42.81685269996524,,,,,,,,,42.8006524000084,42.83373389998451,45.83360599994194,47.81675110000651,47.81675110000651,47.800292999949306,baseline,GS15,01,False,2024-08-05_16h43.36.580,Gratings_vis_devJG_v0.6,2024.1.5,None,2024-08-05 16h43.46.371772 -0400,
8,0,8,0,47.81675110000651,,,,,,,,,47.80054730002303,47.83367940003518,50.83357629994862,52.81672779994551,52.81672779994551,52.80030959995929,baseline,GS15,01,False,2024-08-05_16h43.36.580,Gratings_vis_devJG_v0.6,2024.1.5,None,2024-08-05 16h43.46.371772 -0400,
9,0,9,0,52.81672779994551,,,,,,,,,52.80056010000408,52.833433800027706,55.833608599961735,57.81670780002605,57.81670780002605,57.800279499962926,baseline,GS15,01,False,2024-08-05_16h43.36.580,Gratings_vis_devJG_v0.6,2024.1.5,None,2024-08-05 16h43.46.371772 -0400,
10,0,10,0,57.81670780002605,,,,,,,,,57.80052279995289,57.83336229994893,60.833527700044215,62.81672719994094,62.81672719994094,62.800297699985094,baseline,GS15,01,False,2024-08-05_16h43.36.580,Gratings_vis_devJG_v0.6,2024.1.5,None,2024-08-05 16h43.46.371772 -0400,
11,0,11,0,62.81672719994094,,,,,,,,,62.800562000018544,62.83343570004217,65.83355019998271,67.8166761000175,67.8166761000175,67.80061399994884,baseline,GS15,01,False,2024-08-05_16h43.36.580,Gratings_vis_devJG_v0.6,2024.1.5,None,2024-08-05 16h43.46.371772 -0400,
12,0,12,0,67.8166761000175,,,,,,,,,67.80086700001266,67.8333491999656,70.83347680000588,72.81664830003865,72.81664830003865,72.8005268999841,baseline,GS15,01,False,2024-08-05_16h43.36.580,Gratings_vis_devJG_v0.6,2024.1.5,None,2024-08-05 16h43.46.371772 -0400,
13,0,13,0,72.81664830003865,,,,,,,,,72.80080339999404,72.83331719995476,75.83348379994277,77.81663689995185,77.81663689995185,77.80018030002248,baseline,GS15,01,False,2024-08-05_16h43.36.580,Gratings_vis_devJG_v0.6,2024.1.5,None,2024-08-05 16h43.46.371772 -0400,
14,0,14,0,77.81663689995185,,,,,,,,,77.80043549998663,77.83326260000467,80.83346049999818,82.8165774999652,82.8165774999652,82.80018070002552,baseline,GS15,01,False,2024-08-05_16h43.36.580,Gratings_vis_devJG_v0.6,2024.1.5,None,2024-08-05 16h43.46.371772 -0400,
15,0,15,0,82.8165774999652,,,,,,,,,82.8004229000071,82.83323809993453,85.8334288999904,87.81659279996529,87.81659279996529,87.80052319995593,baseline,GS15,01,False,2024-08-05_16h43.36.580,Gratings_vis_devJG_v0.6,2024.1.5,None,2024-08-05 16h43.46.371772 -0400,
16,0,16,0,87.81659279996529,,,,,,,,,87.80076260003261,87.83320480003022,90.83331380004529,92.81657609995455,92.81657609995455,92.80046239995863,baseline,GS15,01,False,2024-08-05_16h43.36.580,Gratings_vis_devJG_v0.6,2024.1.5,None,2024-08-05 16h43.46.371772 -0400,
17,0,17,0,92.81657609995455,,,,,,,,,92.80071410001256,92.83322160004172,95.83331749995705,97.81651969999075,97.81651969999075,97.80041509994771,baseline,GS15,01,False,2024-08-05_16h43.36.580,Gratings_vis_devJG_v0.6,2024.1.5,None,2024-08-05 16h43.46.371772 -0400,
18,0,18,0,97.81651969999075,,,,,,,,,97.80066599999554,97.83320650004316,100.83350830001291,102.81654060003348,102.81654060003348,102.8001223000465,baseline,GS15,01,False,2024-08-05_16h43.36.580,Gratings_vis_devJG_v0.6,2024.1.5,None,2024-08-05 16h43.46.371772 -0400,
19,0,19,0,102.81654060003348,,,,,,,,,102.80037149996497,102.83319509995636,105.83326240000315,107.81648519996088,107.81648519996088,107.80008299998008,baseline,GS15,01,False,2024-08-05_16h43.36.580,Gratings_vis_devJG_v0.6,2024.1.5,None,2024-08-05 16h43.46.371772 -0400,
20,0,20,0,107.81648519996088,,,,,,,,,107.80033200001344,107.83311719994526,110.83336479996797,112.81643150001764,112.81643150001764,112.8000105000101,baseline,GS15,01,False,2024-08-05_16h43.36.580,Gratings_vis_devJG_v0.6,2024.1.5,None,2024-08-05 16h43.46.371772 -0400,
21,0,21,0,112.81643150001764,,,,,,,,,112.80029919999652,112.83325859997422,115.83319040003698,117.81635129998904,117.81635129998904,117.80031860002782,baseline,GS15,01,False,2024-08-05_16h43.36.580,Gratings_vis_devJG_v0.6,2024.1.5,None,2024-08-05 16h43.46.371772 -0400,
22,0,22,0,117.81635129998904,,,,,,,,,117.80057469999883,117.83304709999356,120.83319349994417,122.81636039994191,122.81636039994191,122.79991389997303,baseline,GS15,01,False,2024-08-05_16h43.36.580,Gratings_vis_devJG_v0.6,2024.1.5,None,2024-08-05 16h43.46.371772 -0400,
23,0,23,0,122.81636039994191,,,,,,,,,122.80015669995919,122.8330262999516,125.83314879995305,127.81653499999084,127.81653499999084,127.8002906999318,baseline,GS15,01,False,2024-08-05_16h43.36.580,Gratings_vis_devJG_v0.6,2024.1.5,None,2024-08-05 16h43.46.371772 -0400,
24,0,24,0,127.81653499999084,,,,,,,,,127.80053899995983,127.83299220004119,130.8331554000033,132.8163063999964,132.8163063999964,132.80043760000262,baseline,GS15,01,False,2024-08-05_16h43.36.580,Gratings_vis_devJG_v0.6,2024.1.5,None,2024-08-05 16h43.46.371772 -0400,
25,0,25,0,132.8163063999964,,,,,,,,,132.80068610003218,132.8329488999443,135.83309860003646,137.8162919000024,137.8162919000024,137.79985730000772,baseline,GS15,01,False,2024-08-05_16h43.36.580,Gratings_vis_devJG_v0.6,2024.1.5,None,2024-08-05 16h43.46.371772 -0400,
26,0,26,0,137.8162919000024,,,,,,,,,137.8001192000229,137.83296959998552,140.8331409000093,142.81627650000155,142.81627650000155,142.80016800004523,baseline,GS15,01,False,2024-08-05_16h43.36.580,Gratings_vis_devJG_v0.6,2024.1.5,None,2024-08-05 16h43.46.371772 -0400,
27,0,27,0,142.81627650000155,,,,,,,,,142.80040930001996,142.83295810001437,145.83324800000992,147.81626690004487,147.81626690004487,147.80018389993347,baseline,GS15,01,False,2024-08-05_16h43.36.580,Gratings_vis_devJG_v0.6,2024.1.5,None,2024-08-05 16h43.46.371772 -0400,
28,0,28,0,147.81626690004487,,,,,,,,,147.80043319996912,147.83288520004135,150.83312690001912,152.81622120004613,152.81622120004613,152.8002215999877,baseline,GS15,01,False,2024-08-05_16h43.36.580,Gratings_vis_devJG_v0.6,2024.1.5,None,2024-08-05 16h43.46.371772 -0400,
29,0,29,0,152.81622120004613,,,,,,,,,152.8004665999906,152.8328730999492,155.83316319994628,157.81621159997303,157.81621159997303,157.79982610000297,baseline,GS15,01,False,2024-08-05_16h43.36.580,Gratings_vis_devJG_v0.6,2024.1.5,None,2024-08-05 16h43.46.371772 -0400,
30,0,30,0,157.81621159997303,,,,,,,,,157.80033220001496,157.8328865999356,160.83306430000812,162.816230299999,162.816230299999,162.80009679996874,baseline,GS15,01,False,2024-08-05_16h43.36.580,Gratings_vis_devJG_v0.6,2024.1.5,None,2024-08-05 16h43.46.371772 -0400,
31,0,31,0,162.816230299999,,,,,,,,,162.80034940002952,162.832836400019,165.83301039994694,167.8162360000424,167.8162360000424,167.80009519995656,baseline,GS15,01,False,2024-08-05_16h43.36.580,Gratings_vis_devJG_v0.6,2024.1.5,None,2024-08-05 16h43.46.371772 -0400,
32,0,32,0,167.8162360000424,,,,,,,,,167.8003395999549,167.83285779994912,170.8330109999515,172.81614599993918,172.81614599993918,172.8001757999882,baseline,GS15,01,False,2024-08-05_16h43.36.580,Gratings_vis_devJG_v0.6,2024.1.5,None,2024-08-05 16h43.46.371772 -0400,
33,0,33,0,172.81614599993918,,,,,,,,,172.80042310000863,172.83281059993897,175.83298009994905,177.81609570002183,177.81609570002183,177.79972420004196,baseline,GS15,01,False,2024-08-05_16h43.36.580,Gratings_vis_devJG_v0.6,2024.1.5,None,2024-08-05 16h43.46.371772 -0400,
34,0,34,0,177.81609570002183,,,,,,,,,177.79998140002135,177.8328148999717,180.83293739997316,,,182.83280830003787,baseline,GS15,01,False,2024-08-05_16h43.36.580,Gratings_vis_devJG_v0.6,2024.1.5,None,2024-08-05 16h43.46.371772 -0400,
35,0,35,0,182.8495389999589,,,,,,,,,182.8330619999906,182.8495389999589,185.83292600000277,,,187.8328179999953,baseline,GS15,01,False,2024-08-05_16h43.36.580,Gratings_vis_devJG_v0.6,2024.1.5,None,2024-08-05 16h43.46.371772 -0400,
36,0,36,0,187.849421299994,,,,,,,,,187.8330809000181,187.849421299994,190.83293130004313,,,192.83273759996518,baseline,GS15,01,False,2024-08-05_16h43.36.580,Gratings_vis_devJG_v0.6,2024.1.5,None,2024-08-05 16h43.46.371772 -0400,
37,0,37,0,192.84938469994813,,,,,,,,,192.83302669995464,192.84938469994813,195.83290239993948,,,197.83275689999573,baseline,GS15,01,False,2024-08-05_16h43.36.580,Gratings_vis_devJG_v0.6,2024.1.5,None,2024-08-05 16h43.46.371772 -0400,
38,0,38,0,197.84937690000515,,,,,,,,,197.8330161999911,197.84937690000515,200.83311869995669,,,202.8345726999687,baseline,GS15,01,False,2024-08-05_16h43.36.580,Gratings_vis_devJG_v0.6,2024.1.5,None,2024-08-05 16h43.46.371772 -0400,
39,0,39,0,202.84941050002817,,,,,,,,,202.8348611999536,202.84941050002817,205.83299290004652,,,207.83417029993143,baseline,GS15,01,False,2024-08-05_16h43.36.580,Gratings_vis_devJG_v0.6,2024.1.5,None,2024-08-05 16h43.46.371772 -0400,
40,0,40,0,207.8493221999379,,,,,,,,,207.83445910003502,207.8493221999379,210.832850900013,,,212.8344705000054,baseline,GS15,01,False,2024-08-05_16h43.36.580,Gratings_vis_devJG_v0.6,2024.1.5,None,2024-08-05 16h43.46.371772 -0400,
41,0,41,0,212.84929159993771,,,,,,,,,212.8347329000244,212.84929159993771,215.83286480000243,,,217.83309430000372,baseline,GS15,01,False,2024-08-05_16h43.36.580,Gratings_vis_devJG_v0.6,2024.1.5,None,2024-08-05 16h43.46.371772 -0400,
42,0,42,0,217.85136660002172,,,,,,,,,217.8333827999886,217.85136660002172,220.8327288000146,,,222.83265779993962,baseline,GS15,01,False,2024-08-05_16h43.36.580,Gratings_vis_devJG_v0.6,2024.1.5,None,2024-08-05 16h43.46.371772 -0400,
43,0,43,0,222.84921639994718,,,,,,,,,222.83291390002705,222.84921639994718,225.83278579998296,,,227.83259360003285,baseline,GS15,01,False,2024-08-05_16h43.36.580,Gratings_vis_devJG_v0.6,2024.1.5,None,2024-08-05 16h43.46.371772 -0400,
44,0,44,0,227.84922109998297,,,,,,,,,227.83286049996968,227.84922109998297,230.832890199963,,,232.83261729998048,baseline,GS15,01,False,2024-08-05_16h43.36.580,Gratings_vis_devJG_v0.6,2024.1.5,None,2024-08-05 16h43.46.371772 -0400,
45,0,45,0,232.84934359998442,,,,,,,,,232.83287139993627,232.84934359998442,235.83442129998002,,,237.83252239995636,baseline,GS15,01,False,2024-08-05_16h43.36.580,Gratings_vis_devJG_v0.6,2024.1.5,None,2024-08-05 16h43.46.371772 -0400,
46,0,46,0,237.8492425000295,,,,,,,,,237.8327827999601,237.8492425000295,240.83359389996622,,,242.83249679999426,baseline,GS15,01,False,2024-08-05_16h43.36.580,Gratings_vis_devJG_v0.6,2024.1.5,None,2024-08-05 16h43.46.371772 -0400,
47,0,47,0,242.84937980002724,,,,,,,,,242.83277800003998,242.84937980002724,245.83373329997994,,,247.8326037999941,baseline,GS15,01,False,2024-08-05_16h43.36.580,Gratings_vis_devJG_v0.6,2024.1.5,None,2024-08-05 16h43.46.371772 -0400,
48,0,48,0,247.84911499998998,,,,,,,,,247.83285420003813,247.84911499998998,250.83402920002118,,,252.8328332999954,baseline,GS15,01,False,2024-08-05_16h43.36.580,Gratings_vis_devJG_v0.6,2024.1.5,None,2024-08-05 16h43.46.371772 -0400,
49,0,49,0,252.84938489994965,,,,,,,,,252.83309400000144,252.84938489994965,255.83437669998966,,,257.832813099958,baseline,GS15,01,False,2024-08-05_16h43.36.580,Gratings_vis_devJG_v0.6,2024.1.5,None,2024-08-05 16h43.46.371772 -0400,
50,0,50,0,257.8494562000269,,,,,,,,,257.83306790003553,257.8494562000269,260.83464919996914,,,262.8330952000106,baseline,GS15,01,False,2024-08-05_16h43.36.580,Gratings_vis_devJG_v0.6,2024.1.5,None,2024-08-05 16h43.46.371772 -0400,
51,0,51,0,262.84977109998,,,,,,,,,262.83335660002194,262.84977109998,265.8349742999999,,,267.83331100002397,baseline,GS15,01,False,2024-08-05_16h43.36.580,Gratings_vis_devJG_v0.6,2024.1.5,None,2024-08-05 16h43.46.371772 -0400,
52,0,52,0,267.8499617000343,,,,,,,,,267.83357240003534,267.8499617000343,270.83519769995473,,,272.8322766999481,baseline,GS15,01,False,2024-08-05_16h43.36.580,Gratings_vis_devJG_v0.6,2024.1.5,None,2024-08-05 16h43.46.371772 -0400,
53,0,53,0,272.85022010002285,,,,,,,,,272.8325327000348,272.85022010002285,275.83276330004446,,,277.83239749993663,baseline,GS15,01,False,2024-08-05_16h43.36.580,Gratings_vis_devJG_v0.6,2024.1.5,None,2024-08-05 16h43.46.371772 -0400,
54,0,54,0,277.84902319998946,,,,,,,,,277.83265929995105,277.84902319998946,280.83238949999213,,,282.8323514999356,baseline,GS15,01,False,2024-08-05_16h43.36.580,Gratings_vis_devJG_v0.6,2024.1.5,None,2024-08-05 16h43.46.371772 -0400,
55,0,55,0,282.848765600007,,,,,,,,,282.83292189997155,282.848765600007,285.832388299983,,,287.83220109995455,baseline,GS15,01,False,2024-08-05_16h43.36.580,Gratings_vis_devJG_v0.6,2024.1.5,None,2024-08-05 16h43.46.371772 -0400,
56,0,56,0,287.84872589993756,,,,,,,,,287.83248520002235,287.84872589993756,290.8323001000099,,,292.83215070003644,baseline,GS15,01,False,2024-08-05_16h43.36.580,Gratings_vis_devJG_v0.6,2024.1.5,None,2024-08-05 16h43.46.371772 -0400,
57,0,57,0,292.8487833000254,,,,,,,,,292.83240940002725,292.8487833000254,295.83223990001716,,,297.83214650000446,baseline,GS15,01,False,2024-08-05_16h43.36.580,Gratings_vis_devJG_v0.6,2024.1.5,None,2024-08-05 16h43.46.371772 -0400,
58,0,58,0,297.84873710002284,,,,,,,,,297.8324045999907,297.84873710002284,300.83232940000016,,,302.8321282999823,baseline,GS15,01,False,2024-08-05_16h43.36.580,Gratings_vis_devJG_v0.6,2024.1.5,None,2024-08-05 16h43.46.371772 -0400,
59,0,59,0,302.84867259999737,,,,,,,,,302.83238169993274,302.84867259999737,305.8322568000294,,,307.8321142999921,baseline,GS15,01,False,2024-08-05_16h43.36.580,Gratings_vis_devJG_v0.6,2024.1.5,None,2024-08-05 16h43.46.371772 -0400,
60,0,60,0,307.8489919999847,,,,,,,,,307.8323970999336,307.8489919999847,310.8322286999319,,,312.83211469999515,baseline,GS15,01,False,2024-08-05_16h43.36.580,Gratings_vis_devJG_v0.6,2024.1.5,None,2024-08-05 16h43.46.371772 -0400,
61,0,61,0,312.8487405999331,,,,,,,,,312.8323810000438,312.8487405999331,315.832200899953,,,317.83202019997407,baseline,GS15,01,False,2024-08-05_16h43.36.580,Gratings_vis_devJG_v0.6,2024.1.5,None,2024-08-05 16h43.46.371772 -0400,
62,0,62,0,317.8487751999637,,,,,,,,,317.8322721000295,317.8487751999637,320.83224449993577,,,322.8320536999963,baseline,GS15,01,False,2024-08-05_16h43.36.580,Gratings_vis_devJG_v0.6,2024.1.5,None,2024-08-05 16h43.46.371772 -0400,
63,0,63,0,322.84868479997385,,,,,,,,,322.83232239994686,322.84868479997385,325.8325201999396,,,327.8319871999556,baseline,GS15,01,False,2024-08-05_16h43.36.580,Gratings_vis_devJG_v0.6,2024.1.5,None,2024-08-05 16h43.46.371772 -0400,
64,0,64,0,327.84864989994094,,,,,,,,,327.83228540001437,327.84864989994094,330.83215739997104,,,332.83197860000655,baseline,GS15,01,False,2024-08-05_16h43.36.580,Gratings_vis_devJG_v0.6,2024.1.5,None,2024-08-05 16h43.46.371772 -0400,
65,0,65,0,332.8486944999313,,,,,,,,,332.8322380000027,332.8486944999313,335.832142499974,,,337.8319798000157,baseline,GS15,01,False,2024-08-05_16h43.36.580,Gratings_vis_devJG_v0.6,2024.1.5,None,2024-08-05 16h43.46.371772 -0400,
66,0,66,0,337.84868069994263,,,,,,,,,337.83224789996166,337.84868069994263,340.8320656999713,,,342.83197259996086,baseline,GS15,01,False,2024-08-05_16h43.36.580,Gratings_vis_devJG_v0.6,2024.1.5,None,2024-08-05 16h43.46.371772 -0400,
67,0,67,0,342.8485578999389,,,,,,,,,342.8322449999396,342.8485578999389,345.8322406000225,,,347.83195629995316,baseline,GS15,01,False,2024-08-05_16h43.36.580,Gratings_vis_devJG_v0.6,2024.1.5,None,2024-08-05 16h43.46.371772 -0400,
68,0,68,0,347.84858979994897,,,,,,,,,347.8322166999569,347.84858979994897,350.8320224999916,,,352.83189629996195,baseline,GS15,01,False,2024-08-05_16h43.36.580,Gratings_vis_devJG_v0.6,2024.1.5,None,2024-08-05 16h43.46.371772 -0400,
69,0,69,0,352.8485388000263,,,,,,,,,352.8321550999535,352.8485388000263,355.83222670003306,,,357.83190560003277,baseline,GS15,01,False,2024-08-05_16h43.36.580,Gratings_vis_devJG_v0.6,2024.1.5,None,2024-08-05 16h43.46.371772 -0400,
70,0,70,0,357.8484988999553,,,,,,,,,357.83217319997493,357.8484988999553,360.83204510004725,,,362.8319150999887,baseline,GS15,01,False,2024-08-05_16h43.36.580,Gratings_vis_devJG_v0.6,2024.1.5,None,2024-08-05 16h43.46.371772 -0400,
71,0,71,0,362.8485029999865,,,,,,,,,362.8321913999971,362.8485029999865,365.83202470000833,,,367.8317910999758,baseline,GS15,01,False,2024-08-05_16h43.36.580,Gratings_vis_devJG_v0.6,2024.1.5,None,2024-08-05 16h43.46.371772 -0400,
72,0,72,0,367.8484782000305,,,,,,,,,367.8320505999727,367.8484782000305,370.8319315999979,,,372.8318065999774,baseline,GS15,01,False,2024-08-05_16h43.36.580,Gratings_vis_devJG_v0.6,2024.1.5,None,2024-08-05 16h43.46.371772 -0400,
73,0,73,0,372.84845319995657,,,,,,,,,372.83206839999184,372.84845319995657,375.8319987000432,,,377.8318992999848,baseline,GS15,01,False,2024-08-05_16h43.36.580,Gratings_vis_devJG_v0.6,2024.1.5,None,2024-08-05 16h43.46.371772 -0400,
74,0,74,0,377.848573199939,,,,,,,,,377.8321805000305,377.848573199939,380.8319137999788,,,382.8317882999545,baseline,GS15,01,False,2024-08-05_16h43.36.580,Gratings_vis_devJG_v0.6,2024.1.5,None,2024-08-05 16h43.46.371772 -0400,
75,0,75,0,382.848360999953,,,,,,,,,382.8320859000087,382.848360999953,385.831969599938,,,387.8317076000385,baseline,GS15,01,False,2024-08-05_16h43.36.580,Gratings_vis_devJG_v0.6,2024.1.5,None,2024-08-05 16h43.46.371772 -0400,
76,0,76,0,387.8483591999393,,,,,,,,,387.8319877999602,387.8483591999393,390.83184999995865,,,392.8317701999331,baseline,GS15,01,False,2024-08-05_16h43.36.580,Gratings_vis_devJG_v0.6,2024.1.5,None,2024-08-05 16h43.46.371772 -0400,
77,0,77,0,392.8483928999631,,,,,,,,,392.83206919999793,392.8483928999631,395.83185780001804,,,397.8316324999323,baseline,GS15,01,False,2024-08-05_16h43.36.580,Gratings_vis_devJG_v0.6,2024.1.5,None,2024-08-05 16h43.46.371772 -0400,
78,0,78,0,397.8485148999607,,,,,,,,,397.8319169000024,397.8485148999607,400.83223629998975,,,402.8316829999676,baseline,GS15,01,False,2024-08-05_16h43.36.580,Gratings_vis_devJG_v0.6,2024.1.5,None,2024-08-05 16h43.46.371772 -0400,
79,0,79,0,402.8482620000141,,,,,,,,,402.8319798000157,402.8482620000141,405.83179520000704,,,407.83165419998113,baseline,GS15,01,False,2024-08-05_16h43.36.580,Gratings_vis_devJG_v0.6,2024.1.5,None,2024-08-05 16h43.46.371772 -0400,
80,0,80,0,407.848246700014,,,,,,,,,407.8319150999887,407.848246700014,410.83175010001287,,,412.8315713999327,baseline,GS15,01,False,2024-08-05_16h43.36.580,Gratings_vis_devJG_v0.6,2024.1.5,None,2024-08-05 16h43.46.371772 -0400,
81,0,81,0,412.84822919999715,,,,,,,,,412.83183519996237,412.84822919999715,415.8316882000072,,,417.8315491999965,baseline,GS15,01,False,2024-08-05_16h43.36.580,Gratings_vis_devJG_v0.6,2024.1.5,None,2024-08-05 16h43.46.371772 -0400,
82,0,82,0,417.84818780003116,,,,,,,,,417.83180859999266,417.84818780003116,420.83165359997656,,,422.83165339997504,baseline,GS15,01,False,2024-08-05_16h43.36.580,Gratings_vis_devJG_v0.6,2024.1.5,None,2024-08-05 16h43.46.371772 -0400,
83,0,83,0,422.8481589000439,,,,,,,,,422.83193949994165,422.8481589000439,425.83166549995076,,,427.83152480004355,baseline,GS15,01,False,2024-08-05_16h43.36.580,Gratings_vis_devJG_v0.6,2024.1.5,None,2024-08-05 16h43.46.371772 -0400,
84,0,84,0,427.848186600022,,,,,,,,,427.8318179999478,427.848186600022,430.8317035000073,,,432.8315350000048,baseline,GS15,01,False,2024-08-05_16h43.36.580,Gratings_vis_devJG_v0.6,2024.1.5,None,2024-08-05 16h43.46.371772 -0400,
85,0,85,0,432.8481695000082,,,,,,,,,432.83181150001474,432.8481695000082,435.831601300044,,,437.83151179994456,baseline,GS15,01,False,2024-08-05_16h43.36.580,Gratings_vis_devJG_v0.6,2024.1.5,None,2024-08-05 16h43.46.371772 -0400,
86,0,86,0,437.848128200043,,,,,,,,,437.8317628999939,437.848128200043,440.8316313000396,,,442.8314488000469,baseline,GS15,01,False,2024-08-05_16h43.36.580,Gratings_vis_devJG_v0.6,2024.1.5,None,2024-08-05 16h43.46.371772 -0400,
87,0,87,0,442.84805379994214,,,,,,,,,442.8317342000082,442.84805379994214,445.83161480003037,,,447.831484299968,baseline,GS15,01,False,2024-08-05_16h43.36.580,Gratings_vis_devJG_v0.6,2024.1.5,None,2024-08-05 16h43.46.371772 -0400,
88,0,88,0,447.84805319993757,,,,,,,,,447.8317355000181,447.84805319993757,450.831616200041,,,452.8314379999647,baseline,GS15,01,False,2024-08-05_16h43.36.580,Gratings_vis_devJG_v0.6,2024.1.5,None,2024-08-05 16h43.46.371772 -0400,
89,0,89,0,452.8480487000197,,,,,,,,,452.83175020001363,452.8480487000197,455.832405299996,,,457.83145049994346,baseline,GS15,01,False,2024-08-05_16h43.36.580,Gratings_vis_devJG_v0.6,2024.1.5,None,2024-08-05 16h43.46.371772 -0400,
90,0,90,0,457.8481325999601,,,,,,,,,457.831717699999,457.8481325999601,460.8316727000056,,,462.83136389998253,baseline,GS15,01,False,2024-08-05_16h43.36.580,Gratings_vis_devJG_v0.6,2024.1.5,None,2024-08-05 16h43.46.371772 -0400,
91,0,91,0,462.8480187000241,,,,,,,,,462.83164019999094,462.8480187000241,465.8315368000185,,,467.83135789993685,baseline,GS15,01,False,2024-08-05_16h43.36.580,Gratings_vis_devJG_v0.6,2024.1.5,None,2024-08-05 16h43.46.371772 -0400,
92,0,92,0,467.8485985000152,,,,,,,,,467.83163269993383,467.8485985000152,470.8315470999805,,,472.8313505999977,baseline,GS15,01,False,2024-08-05_16h43.36.580,Gratings_vis_devJG_v0.6,2024.1.5,None,2024-08-05 16h43.46.371772 -0400,
93,0,93,0,472.8479430000298,,,,,,,,,472.83161949994974,472.8479430000298,475.83148309995886,,,477.83144069998525,baseline,GS15,01,False,2024-08-05_16h43.36.580,Gratings_vis_devJG_v0.6,2024.1.5,None,2024-08-05 16h43.46.371772 -0400,
94,0,94,0,477.84794230002444,,,,,,,,,477.83170590002555,477.84794230002444,480.8314590000082,,,482.83146190003026,baseline,GS15,01,False,2024-08-05_16h43.36.580,Gratings_vis_devJG_v0.6,2024.1.5,None,2024-08-05 16h43.46.371772 -0400,
95,0,95,0,482.8479764999356,,,,,,,,,482.83172380004544,482.8479764999356,485.8313955999911,,,487.83121720002964,baseline,GS15,01,False,2024-08-05_16h43.36.580,Gratings_vis_devJG_v0.6,2024.1.5,None,2024-08-05 16h43.46.371772 -0400,
96,0,96,0,487.8483444999438,,,,,,,,,487.8314660999458,487.8483444999438,490.83150329999626,,,492.8312853999669,baseline,GS15,01,False,2024-08-05_16h43.36.580,Gratings_vis_devJG_v0.6,2024.1.5,None,2024-08-05 16h43.46.371772 -0400,
97,0,97,0,492.8486639999319,,,,,,,,,492.83156910003163,492.8486639999319,495.8313750999514,,,497.83118199999444,baseline,GS15,01,False,2024-08-05_16h43.36.580,Gratings_vis_devJG_v0.6,2024.1.5,None,2024-08-05 16h43.46.371772 -0400,
98,0,98,0,497.84861440001987,,,,,,,,,497.8314455000218,497.84861440001987,500.83128179993946,,,502.83120499993674,baseline,GS15,01,False,2024-08-05_16h43.36.580,Gratings_vis_devJG_v0.6,2024.1.5,None,2024-08-05 16h43.46.371772 -0400,
99,0,99,0,502.84777540003415,,,,,,,,,502.8314587000059,502.84777540003415,505.8313126999419,,,507.83135400002357,baseline,GS15,01,False,2024-08-05_16h43.36.580,Gratings_vis_devJG_v0.6,2024.1.5,None,2024-08-05 16h43.46.371772 -0400,
100,0,100,0,507.84772129997145,,,,,,,,,507.8316042999504,507.84772129997145,510.83125960000325,,,512.8313009999692,baseline,GS15,01,False,2024-08-05_16h43.36.580,Gratings_vis_devJG_v0.6,2024.1.5,None,2024-08-05 16h43.46.371772 -0400,
101,0,101,0,512.8478371000383,,,,,,,,,512.8315657000057,512.8478371000383,515.8313033999875,,,517.8310933000175,baseline,GS15,01,False,2024-08-05_16h43.36.580,Gratings_vis_devJG_v0.6,2024.1.5,None,2024-08-05 16h43.46.371772 -0400,
102,0,102,0,517.8476750999689,,,,,,,,,517.831342899939,517.8476750999689,520.8312449000077,,,522.8312339000404,baseline,GS15,01,False,2024-08-05_16h43.36.580,Gratings_vis_devJG_v0.6,2024.1.5,None,2024-08-05 16h43.46.371772 -0400,
103,0,103,0,522.8476692000404,,,,,,,,,522.8315113999415,522.8476692000404,525.8314545999747,,,527.8311329999706,baseline,GS15,01,False,2024-08-05_16h43.36.580,Gratings_vis_devJG_v0.6,2024.1.5,None,2024-08-05 16h43.46.371772 -0400,
104,0,104,0,527.8476885999553,,,,,,,,,527.8314062999561,527.8476885999553,530.8316757000284,,,532.8309717000229,baseline,GS15,01,False,2024-08-05_16h43.36.580,Gratings_vis_devJG_v0.6,2024.1.5,None,2024-08-05 16h43.46.371772 -0400,
105,0,105,0,532.8477869000053,,,,,,,,,532.8312558999751,532.8477869000053,535.8319295999827,,,537.8311143999454,baseline,GS15,01,False,2024-08-05_16h43.36.580,Gratings_vis_devJG_v0.6,2024.1.5,None,2024-08-05 16h43.46.371772 -0400,
106,0,106,0,537.8476410999428,,,,,,,,,537.8313640999841,537.8476410999428,540.8322521999944,,,542.8310657000402,baseline,GS15,01,False,2024-08-05_16h43.36.580,Gratings_vis_devJG_v0.6,2024.1.5,None,2024-08-05 16h43.46.371772 -0400,
107,0,107,0,542.8475688999752,,,,,,,,,542.8313141999533,542.8475688999752,545.8319340000162,,,547.8310002000071,baseline,GS15,01,False,2024-08-05_16h43.36.580,Gratings_vis_devJG_v0.6,2024.1.5,None,2024-08-05 16h43.46.371772 -0400,
108,0,108,0,547.8480965000344,,,,,,,,,547.8312714999774,547.8480965000344,550.8328285999596,,,552.8312935000286,baseline,GS15,01,False,2024-08-05_16h43.36.580,Gratings_vis_devJG_v0.6,2024.1.5,None,2024-08-05 16h43.46.371772 -0400,
109,0,109,0,552.8479558000108,,,,,,,,,552.8315546000376,552.8479558000108,555.8331519999774,,,557.8315010999795,baseline,GS15,01,False,2024-08-05_16h43.36.580,Gratings_vis_devJG_v0.6,2024.1.5,None,2024-08-05 16h43.46.371772 -0400,
110,0,110,0,557.8481177999638,,,,,,,,,557.8317575999536,557.8481177999638,560.8333598000463,,,562.831753400038,baseline,GS15,01,False,2024-08-05_16h43.36.580,Gratings_vis_devJG_v0.6,2024.1.5,None,2024-08-05 16h43.46.371772 -0400,
111,0,111,0,562.8484268999891,,,,,,,,,562.8320481999544,562.8484268999891,565.833632200025,,,567.832001099945,baseline,GS15,01,False,2024-08-05_16h43.36.580,Gratings_vis_devJG_v0.6,2024.1.5,None,2024-08-05 16h43.46.371772 -0400,
112,0,112,0,567.8486345999409,,,,,,,,,567.8323095999658,567.8486345999409,570.8311555000255,,,572.8307520999806,baseline,GS15,01,False,2024-08-05_16h43.36.580,Gratings_vis_devJG_v0.6,2024.1.5,None,2024-08-05 16h43.46.371772 -0400,
113,0,113,0,572.8489828000311,,,,,,,,,572.8310094999615,572.8489828000311,575.8313642999856,,,577.8306398999412,baseline,GS15,01,False,2024-08-05_16h43.36.580,Gratings_vis_devJG_v0.6,2024.1.5,None,2024-08-05 16h43.46.371772 -0400,
114,0,114,0,577.8472986000124,,,,,,,,,577.8308987999335,577.8472986000124,580.8308067000471,,,582.8305881000124,baseline,GS15,01,False,2024-08-05_16h43.36.580,Gratings_vis_devJG_v0.6,2024.1.5,None,2024-08-05 16h43.46.371772 -0400,
115,0,115,0,582.8473046999425,,,,,,,,,582.8308527999325,582.8473046999425,585.8310302000027,,,587.830618500011,baseline,GS15,01,False,2024-08-05_16h43.36.580,Gratings_vis_devJG_v0.6,2024.1.5,None,2024-08-05 16h43.46.371772 -0400,
116,0,116,0,587.8472339999862,,,,,,,,,587.8309807999758,587.8472339999862,590.8311268000398,,,592.8306320999982,baseline,GS15,01,False,2024-08-05_16h43.36.580,Gratings_vis_devJG_v0.6,2024.1.5,None,2024-08-05 16h43.46.371772 -0400,
117,0,117,0,592.8472239000257,,,,,,,,,592.830900699948,592.8472239000257,595.830901099951,,,597.8306741999695,baseline,GS15,01,False,2024-08-05_16h43.36.580,Gratings_vis_devJG_v0.6,2024.1.5,None,2024-08-05 16h43.46.371772 -0400,
118,0,118,0,597.8471762000117,,,,,,,,,597.8309448999353,597.8471762000117,600.8307215999812,,,602.8308011000045,baseline,GS15,01,False,2024-08-05_16h43.36.580,Gratings_vis_devJG_v0.6,2024.1.5,None,2024-08-05 16h43.46.371772 -0400,
119,0,119,0,602.847325699986,,,,,,,,,602.8310566999717,602.847325699986,605.8309022999601,,,607.8306849999353,baseline,GS15,01,False,2024-08-05_16h43.36.580,Gratings_vis_devJG_v0.6,2024.1.5,None,2024-08-05 16h43.46.371772 -0400,
