trials.thisRepN,trials.thisTrialN,trials.thisN,trials.thisIndex,thisRow.t,notes,nidaqTrigger.started,text_waiting_message.started,key_resp.started,nidaqTrigger.stopped,key_resp.keys,key_resp.rt,key_resp.duration,display_gratings.started,stim_grayScreen.started,stim_grating.started,display_gratings.stopped,Protocol ID,Subject ID,Session ID,Wait for Trigger,date,expName,psychopyVersion,frameRate,expStart,
,,,,,,0.005218700040131807,0.012984200031496584,0.012984200031496584,10.481934200040996,space,10.460858899983577,None,,,,,baseline,GS09,01,False,2024-08-05_14h55.10.008,Gratings_vis_devJG_v0.6,2024.1.5,None,2024-08-05 14h55.22.665256 -0400,
0,0,0,0,10.58767420006916,,,,,,,,,10.518964400049299,10.58767420006916,13.530370200052857,15.530001700040884,baseline,GS09,01,False,2024-08-05_14h55.10.008,Gratings_vis_devJG_v0.6,2024.1.5,None,2024-08-05 14h55.22.665256 -0400,
1,0,1,0,15.546506100101396,,,,,,,,,15.53028920001816,15.546506100101396,18.530081000062637,20.530018200050108,baseline,GS09,01,False,2024-08-05_14h55.10.008,Gratings_vis_devJG_v0.6,2024.1.5,None,2024-08-05 14h55.22.665256 -0400,
2,0,2,0,20.546829600003548,,,,,,,,,20.530301699996926,20.546829600003548,23.53014260006603,25.530219900072552,baseline,GS09,01,False,2024-08-05_14h55.10.008,Gratings_vis_devJG_v0.6,2024.1.5,None,2024-08-05 14h55.22.665256 -0400,
3,0,3,0,25.546627400093712,,,,,,,,,25.530526400078088,25.546627400093712,28.53001210000366,30.530033700051717,baseline,GS09,01,False,2024-08-05_14h55.10.008,Gratings_vis_devJG_v0.6,2024.1.5,None,2024-08-05 14h55.22.665256 -0400,
4,0,4,0,30.54739220009651,,,,,,,,,30.53030470001977,30.54739220009651,33.530164499999955,35.529834200046025,baseline,GS09,01,False,2024-08-05_14h55.10.008,Gratings_vis_devJG_v0.6,2024.1.5,None,2024-08-05 14h55.22.665256 -0400,
5,0,5,0,35.546453100047074,,,,,,,,,35.530124800046906,35.546453100047074,38.5300270000007,40.52978219999932,baseline,GS09,01,False,2024-08-05_14h55.10.008,Gratings_vis_devJG_v0.6,2024.1.5,None,2024-08-05 14h55.22.665256 -0400,
6,0,6,0,40.546418600017205,,,,,,,,,40.53007700003218,40.546418600017205,43.52995009999722,45.529824900091626,baseline,GS09,01,False,2024-08-05_14h55.10.008,Gratings_vis_devJG_v0.6,2024.1.5,None,2024-08-05 14h55.22.665256 -0400,
7,0,7,0,45.54641180008184,,,,,,,,,45.53008410008624,45.54641180008184,48.5298935000319,50.52974680007901,baseline,GS09,01,False,2024-08-05_14h55.10.008,Gratings_vis_devJG_v0.6,2024.1.5,None,2024-08-05 14h55.22.665256 -0400,
8,0,8,0,50.54637940006796,,,,,,,,,50.53000820009038,50.54637940006796,53.52991420007311,55.52973120007664,baseline,GS09,01,False,2024-08-05_14h55.10.008,Gratings_vis_devJG_v0.6,2024.1.5,None,2024-08-05 14h55.22.665256 -0400,
9,0,9,0,55.54636390006635,,,,,,,,,55.52998190000653,55.54636390006635,58.52986540005077,60.52966650004964,baseline,GS09,01,False,2024-08-05_14h55.10.008,Gratings_vis_devJG_v0.6,2024.1.5,None,2024-08-05 14h55.22.665256 -0400,
10,0,10,0,60.54667980002705,,,,,,,,,60.52993010007776,60.54667980002705,63.52985540009104,65.52970690000802,baseline,GS09,01,False,2024-08-05_14h55.10.008,Gratings_vis_devJG_v0.6,2024.1.5,None,2024-08-05 14h55.22.665256 -0400,
11,0,11,0,65.5463252000045,,,,,,,,,65.52998990006745,65.5463252000045,68.52981540001929,70.529657300096,baseline,GS09,01,False,2024-08-05_14h55.10.008,Gratings_vis_devJG_v0.6,2024.1.5,None,2024-08-05 14h55.22.665256 -0400,
12,0,12,0,70.54628160002176,,,,,,,,,70.529919099994,70.54628160002176,73.52977670007385,75.52962530008517,baseline,GS09,01,False,2024-08-05_14h55.10.008,Gratings_vis_devJG_v0.6,2024.1.5,None,2024-08-05 14h55.22.665256 -0400,
13,0,13,0,75.54625660006423,,,,,,,,,75.5299005000852,75.54625660006423,78.52972730004694,80.52959819999523,baseline,GS09,01,False,2024-08-05_14h55.10.008,Gratings_vis_devJG_v0.6,2024.1.5,None,2024-08-05 14h55.22.665256 -0400,
14,0,14,0,80.54623600002378,,,,,,,,,80.52985789999366,80.54623600002378,83.52972470002715,85.52960560005158,baseline,GS09,01,False,2024-08-05_14h55.10.008,Gratings_vis_devJG_v0.6,2024.1.5,None,2024-08-05 14h55.22.665256 -0400,
15,0,15,0,85.54624900000636,,,,,,,,,85.52986300003249,85.54624900000636,88.52968330006115,90.52971820009407,baseline,GS09,01,False,2024-08-05_14h55.10.008,Gratings_vis_devJG_v0.6,2024.1.5,None,2024-08-05 14h55.22.665256 -0400,
16,0,16,0,90.54622910008766,,,,,,,,,90.52998970006593,90.54622910008766,93.52980110002682,95.52954470005352,baseline,GS09,01,False,2024-08-05_14h55.10.008,Gratings_vis_devJG_v0.6,2024.1.5,None,2024-08-05 14h55.22.665256 -0400,
17,0,17,0,95.54620770004112,,,,,,,,,95.52981180010829,95.54620770004112,98.52962929999921,100.52949530002661,baseline,GS09,01,False,2024-08-05_14h55.10.008,Gratings_vis_devJG_v0.6,2024.1.5,None,2024-08-05 14h55.22.665256 -0400,
18,0,18,0,100.54616340005305,,,,,,,,,100.52974860009272,100.54616340005305,103.52959330007434,105.52946600003634,baseline,GS09,01,False,2024-08-05_14h55.10.008,Gratings_vis_devJG_v0.6,2024.1.5,None,2024-08-05 14h55.22.665256 -0400,
19,0,19,0,105.54608250001911,,,,,,,,,105.52974770008586,105.54608250001911,108.52958070009481,110.52942740009166,baseline,GS09,01,False,2024-08-05_14h55.10.008,Gratings_vis_devJG_v0.6,2024.1.5,None,2024-08-05 14h55.22.665256 -0400,
20,0,20,0,110.54607080004644,,,,,,,,,110.52973900001962,110.54607080004644,113.52953640010674,115.52942610008176,baseline,GS09,01,False,2024-08-05_14h55.10.008,Gratings_vis_devJG_v0.6,2024.1.5,None,2024-08-05 14h55.22.665256 -0400,
21,0,21,0,115.5460000000894,,,,,,,,,115.52969200001098,115.5460000000894,118.52949340001214,120.52938429999631,baseline,GS09,01,False,2024-08-05_14h55.10.008,Gratings_vis_devJG_v0.6,2024.1.5,None,2024-08-05 14h55.22.665256 -0400,
22,0,22,0,120.54599450004753,,,,,,,,,120.52966990007553,120.54599450004753,123.52949040010571,125.5293965000892,baseline,GS09,01,False,2024-08-05_14h55.10.008,Gratings_vis_devJG_v0.6,2024.1.5,None,2024-08-05 14h55.22.665256 -0400,
23,0,23,0,125.54599660006352,,,,,,,,,125.52966410003137,125.54599660006352,128.52957170002628,130.52940930007026,baseline,GS09,01,False,2024-08-05_14h55.10.008,Gratings_vis_devJG_v0.6,2024.1.5,None,2024-08-05 14h55.22.665256 -0400,
24,0,24,0,130.5459542000899,,,,,,,,,130.5296759000048,130.5459542000899,133.52951790008228,135.52934570005164,baseline,GS09,01,False,2024-08-05_14h55.10.008,Gratings_vis_devJG_v0.6,2024.1.5,None,2024-08-05 14h55.22.665256 -0400,
25,0,25,0,135.5459457000252,,,,,,,,,135.5296053000493,135.5459457000252,138.52947330009192,140.5293101000134,baseline,GS09,01,False,2024-08-05_14h55.10.008,Gratings_vis_devJG_v0.6,2024.1.5,None,2024-08-05 14h55.22.665256 -0400,
26,0,26,0,140.54592950001825,,,,,,,,,140.52957070001867,140.54592950001825,143.52944070007652,145.52926510001998,baseline,GS09,01,False,2024-08-05_14h55.10.008,Gratings_vis_devJG_v0.6,2024.1.5,None,2024-08-05 14h55.22.665256 -0400,
27,0,27,0,145.54590630007442,,,,,,,,,145.5295186000876,145.54590630007442,148.5296203000471,150.52927190007176,baseline,GS09,01,False,2024-08-05_14h55.10.008,Gratings_vis_devJG_v0.6,2024.1.5,None,2024-08-05 14h55.22.665256 -0400,
28,0,28,0,150.5459457000252,,,,,,,,,150.5295497000916,150.5459457000252,153.5294340000255,155.5294697000645,baseline,GS09,01,False,2024-08-05_14h55.10.008,Gratings_vis_devJG_v0.6,2024.1.5,None,2024-08-05 14h55.22.665256 -0400,
29,0,29,0,155.5460217000218,,,,,,,,,155.52996170008555,155.5460217000218,158.52934780006763,160.52922180003952,baseline,GS09,01,False,2024-08-05_14h55.10.008,Gratings_vis_devJG_v0.6,2024.1.5,None,2024-08-05 14h55.22.665256 -0400,
30,0,30,0,160.54586150008254,,,,,,,,,160.52948560006917,160.54586150008254,163.5293225001078,165.52918300009333,baseline,GS09,01,False,2024-08-05_14h55.10.008,Gratings_vis_devJG_v0.6,2024.1.5,None,2024-08-05 14h55.22.665256 -0400,
31,0,31,0,165.54579410003498,,,,,,,,,165.52943390002474,165.54579410003498,168.52931700006593,170.5291510000825,baseline,GS09,01,False,2024-08-05_14h55.10.008,Gratings_vis_devJG_v0.6,2024.1.5,None,2024-08-05 14h55.22.665256 -0400,
32,0,32,0,170.54577580001205,,,,,,,,,170.5294521000469,170.54577580001205,173.529322000104,175.52912300010212,baseline,GS09,01,False,2024-08-05_14h55.10.008,Gratings_vis_devJG_v0.6,2024.1.5,None,2024-08-05 14h55.22.665256 -0400,
33,0,33,0,175.5457563000964,,,,,,,,,175.52937420003582,175.5457563000964,178.52934990008362,180.53036140010227,baseline,GS09,01,False,2024-08-05_14h55.10.008,Gratings_vis_devJG_v0.6,2024.1.5,None,2024-08-05 14h55.22.665256 -0400,
34,0,34,0,180.54570570006035,,,,,,,,,180.5306141000474,180.54570570006035,183.53112080006395,185.52993190009147,baseline,GS09,01,False,2024-08-05_14h55.10.008,Gratings_vis_devJG_v0.6,2024.1.5,None,2024-08-05 14h55.22.665256 -0400,
35,0,35,0,185.54573940008413,,,,,,,,,185.5301993000321,185.54573940008413,188.5304275000235,190.52969070000108,baseline,GS09,01,False,2024-08-05_14h55.10.008,Gratings_vis_devJG_v0.6,2024.1.5,None,2024-08-05 14h55.22.665256 -0400,
36,0,36,0,190.54693060007412,,,,,,,,,190.52997070003767,190.54693060007412,193.5293070001062,195.53079710004386,baseline,GS09,01,False,2024-08-05_14h55.10.008,Gratings_vis_devJG_v0.6,2024.1.5,None,2024-08-05 14h55.22.665256 -0400,
37,0,37,0,195.54763939999975,,,,,,,,,195.53105870005675,195.54763939999975,198.5291437000269,200.52899870008696,baseline,GS09,01,False,2024-08-05_14h55.10.008,Gratings_vis_devJG_v0.6,2024.1.5,None,2024-08-05 14h55.22.665256 -0400,
38,0,38,0,200.54686170001514,,,,,,,,,200.52925280004274,200.54686170001514,203.52911080000922,205.53098450007383,baseline,GS09,01,False,2024-08-05_14h55.10.008,Gratings_vis_devJG_v0.6,2024.1.5,None,2024-08-05 14h55.22.665256 -0400,
39,0,39,0,205.547752100043,,,,,,,,,205.53124110004865,205.547752100043,208.52917570003774,210.52897260000464,baseline,GS09,01,False,2024-08-05_14h55.10.008,Gratings_vis_devJG_v0.6,2024.1.5,None,2024-08-05 14h55.22.665256 -0400,
40,0,40,0,210.5455700000748,,,,,,,,,210.52927200007252,210.5455700000748,213.52929289999884,215.52895680000074,baseline,GS09,01,False,2024-08-05_14h55.10.008,Gratings_vis_devJG_v0.6,2024.1.5,None,2024-08-05 14h55.22.665256 -0400,
41,0,41,0,215.54572260007262,,,,,,,,,215.5292534000473,215.54572260007262,218.52939450007398,220.52887140004896,baseline,GS09,01,False,2024-08-05_14h55.10.008,Gratings_vis_devJG_v0.6,2024.1.5,None,2024-08-05 14h55.22.665256 -0400,
42,0,42,0,220.54550410003867,,,,,,,,,220.52912630001083,220.54550410003867,223.52962010004558,225.5288995000301,baseline,GS09,01,False,2024-08-05_14h55.10.008,Gratings_vis_devJG_v0.6,2024.1.5,None,2024-08-05 14h55.22.665256 -0400,
43,0,43,0,225.54552200005855,,,,,,,,,225.5291748000309,225.54552200005855,228.52995029999875,230.52883900003508,baseline,GS09,01,False,2024-08-05_14h55.10.008,Gratings_vis_devJG_v0.6,2024.1.5,None,2024-08-05 14h55.22.665256 -0400,
44,0,44,0,230.54551760002505,,,,,,,,,230.52911610004958,230.54551760002505,233.53018920007162,235.5288255000487,baseline,GS09,01,False,2024-08-05_14h55.10.008,Gratings_vis_devJG_v0.6,2024.1.5,None,2024-08-05 14h55.22.665256 -0400,
45,0,45,0,235.5454272000352,,,,,,,,,235.52907600009348,235.5454272000352,238.53050170000643,240.5290035000071,baseline,GS09,01,False,2024-08-05_14h55.10.008,Gratings_vis_devJG_v0.6,2024.1.5,None,2024-08-05 14h55.22.665256 -0400,
46,0,46,0,240.54560950002633,,,,,,,,,240.52926360000856,240.54560950002633,243.53075830009766,245.52928720007185,baseline,GS09,01,False,2024-08-05_14h55.10.008,Gratings_vis_devJG_v0.6,2024.1.5,None,2024-08-05 14h55.22.665256 -0400,
47,0,47,0,245.54591810004786,,,,,,,,,245.52954620006494,245.54591810004786,248.5310909000691,250.5295626000734,baseline,GS09,01,False,2024-08-05_14h55.10.008,Gratings_vis_devJG_v0.6,2024.1.5,None,2024-08-05 14h55.22.665256 -0400,
48,0,48,0,250.54619960009586,,,,,,,,,250.52985280007124,250.54619960009586,253.53145740006585,255.52977780008223,baseline,GS09,01,False,2024-08-05_14h55.10.008,Gratings_vis_devJG_v0.6,2024.1.5,None,2024-08-05 14h55.22.665256 -0400,
49,0,49,0,255.54648310004268,,,,,,,,,255.53007950005122,255.54648310004268,258.53176500007976,260.52880910004023,baseline,GS09,01,False,2024-08-05_14h55.10.008,Gratings_vis_devJG_v0.6,2024.1.5,None,2024-08-05 14h55.22.665256 -0400,
50,0,50,0,260.5452559000114,,,,,,,,,260.52907240006607,260.5452559000114,263.52924890001304,265.5287851000903,baseline,GS09,01,False,2024-08-05_14h55.10.008,Gratings_vis_devJG_v0.6,2024.1.5,None,2024-08-05 14h55.22.665256 -0400,
51,0,51,0,265.5452098000096,,,,,,,,,265.52904580009636,265.5452098000096,268.5289986000862,270.528604799998,baseline,GS09,01,False,2024-08-05_14h55.10.008,Gratings_vis_devJG_v0.6,2024.1.5,None,2024-08-05 14h55.22.665256 -0400,
52,0,52,0,270.5452839001082,,,,,,,,,270.52891280001495,270.5452839001082,273.5292172000045,275.52859820006415,baseline,GS09,01,False,2024-08-05_14h55.10.008,Gratings_vis_devJG_v0.6,2024.1.5,None,2024-08-05 14h55.22.665256 -0400,
53,0,53,0,275.54517040005885,,,,,,,,,275.52889549999963,275.54517040005885,278.52892990002874,280.5285303000128,baseline,GS09,01,False,2024-08-05_14h55.10.008,Gratings_vis_devJG_v0.6,2024.1.5,None,2024-08-05 14h55.22.665256 -0400,
54,0,54,0,280.54515130002983,,,,,,,,,280.5287805000553,280.54515130002983,283.5286829000106,285.52858730009757,baseline,GS09,01,False,2024-08-05_14h55.10.008,Gratings_vis_devJG_v0.6,2024.1.5,None,2024-08-05 14h55.22.665256 -0400,
55,0,55,0,285.5451982000377,,,,,,,,,285.52886800002307,285.5451982000377,288.52877210010774,290.528467600001,baseline,GS09,01,False,2024-08-05_14h55.10.008,Gratings_vis_devJG_v0.6,2024.1.5,None,2024-08-05 14h55.22.665256 -0400,
56,0,56,0,290.54520070005674,,,,,,,,,290.52872679999564,290.54520070005674,293.5285968000535,295.5284605000634,baseline,GS09,01,False,2024-08-05_14h55.10.008,Gratings_vis_devJG_v0.6,2024.1.5,None,2024-08-05 14h55.22.665256 -0400,
57,0,57,0,295.54512250004336,,,,,,,,,295.5287179000443,295.54512250004336,298.52887989999726,300.52846470009536,baseline,GS09,01,False,2024-08-05_14h55.10.008,Gratings_vis_devJG_v0.6,2024.1.5,None,2024-08-05 14h55.22.665256 -0400,
58,0,58,0,300.5450900000287,,,,,,,,,300.52873220003676,300.5450900000287,303.52854640001897,305.5284509001067,baseline,GS09,01,False,2024-08-05_14h55.10.008,Gratings_vis_devJG_v0.6,2024.1.5,None,2024-08-05 14h55.22.665256 -0400,
59,0,59,0,305.54508579999674,,,,,,,,,305.52873590006493,305.54508579999674,308.52858110005036,310.5283870000858,baseline,GS09,01,False,2024-08-05_14h55.10.008,Gratings_vis_devJG_v0.6,2024.1.5,None,2024-08-05 14h55.22.665256 -0400,
60,0,60,0,310.54504150000867,,,,,,,,,310.52865069999825,310.54504150000867,313.5289155000355,315.5284175000852,baseline,GS09,01,False,2024-08-05_14h55.10.008,Gratings_vis_devJG_v0.6,2024.1.5,None,2024-08-05 14h55.22.665256 -0400,
61,0,61,0,315.54504540003836,,,,,,,,,315.52870320004877,315.54504540003836,318.5287412001053,320.52838060003705,baseline,GS09,01,False,2024-08-05_14h55.10.008,Gratings_vis_devJG_v0.6,2024.1.5,None,2024-08-05 14h55.22.665256 -0400,
62,0,62,0,320.5449971000198,,,,,,,,,320.52864710008726,320.5449971000198,323.52860030008014,325.5283795000287,baseline,GS09,01,False,2024-08-05_14h55.10.008,Gratings_vis_devJG_v0.6,2024.1.5,None,2024-08-05 14h55.22.665256 -0400,
63,0,63,0,325.5449442000827,,,,,,,,,325.528663800098,325.5449442000827,328.5284568000352,330.5282933000708,baseline,GS09,01,False,2024-08-05_14h55.10.008,Gratings_vis_devJG_v0.6,2024.1.5,None,2024-08-05 14h55.22.665256 -0400,
64,0,64,0,330.5450062000891,,,,,,,,,330.5285431999946,330.5450062000891,333.52879690006375,335.52844580006786,baseline,GS09,01,False,2024-08-05_14h55.10.008,Gratings_vis_devJG_v0.6,2024.1.5,None,2024-08-05 14h55.22.665256 -0400,
65,0,65,0,335.54498410003725,,,,,,,,,335.52891830005683,335.54498410003725,338.52842820005026,340.5283331000246,baseline,GS09,01,False,2024-08-05_14h55.10.008,Gratings_vis_devJG_v0.6,2024.1.5,None,2024-08-05 14h55.22.665256 -0400,
66,0,66,0,340.54490910004824,,,,,,,,,340.5286276000552,340.54490910004824,343.5285422001034,345.52829600009136,baseline,GS09,01,False,2024-08-05_14h55.10.008,Gratings_vis_devJG_v0.6,2024.1.5,None,2024-08-05 14h55.22.665256 -0400,
67,0,67,0,345.54490880004596,,,,,,,,,345.5285626000259,345.54490880004596,348.52837110008113,350.52821090002544,baseline,GS09,01,False,2024-08-05_14h55.10.008,Gratings_vis_devJG_v0.6,2024.1.5,None,2024-08-05 14h55.22.665256 -0400,
68,0,68,0,350.54482480010483,,,,,,,,,350.5284702000208,350.54482480010483,353.5283455000026,355.52819930005353,baseline,GS09,01,False,2024-08-05_14h55.10.008,Gratings_vis_devJG_v0.6,2024.1.5,None,2024-08-05 14h55.22.665256 -0400,
69,0,69,0,355.54482010006905,,,,,,,,,355.52846370008774,355.54482010006905,358.5283287001075,360.5282028000802,baseline,GS09,01,False,2024-08-05_14h55.10.008,Gratings_vis_devJG_v0.6,2024.1.5,None,2024-08-05 14h55.22.665256 -0400,
70,0,70,0,360.5447561000474,,,,,,,,,360.5284565000329,360.5447561000474,363.52829990000464,365.52822800003923,baseline,GS09,01,False,2024-08-05_14h55.10.008,Gratings_vis_devJG_v0.6,2024.1.5,None,2024-08-05 14h55.22.665256 -0400,
71,0,71,0,365.544832100044,,,,,,,,,365.5284922000719,365.544832100044,368.52824820007663,370.5281807000283,baseline,GS09,01,False,2024-08-05_14h55.10.008,Gratings_vis_devJG_v0.6,2024.1.5,None,2024-08-05 14h55.22.665256 -0400,
72,0,72,0,370.54473490000237,,,,,,,,,370.52843669999857,370.54473490000237,373.5283316000132,375.52813850005623,baseline,GS09,01,False,2024-08-05_14h55.10.008,Gratings_vis_devJG_v0.6,2024.1.5,None,2024-08-05 14h55.22.665256 -0400,
73,0,73,0,375.54473080008756,,,,,,,,,375.5284426000435,375.54473080008756,378.52825510001276,380.5280744000338,baseline,GS09,01,False,2024-08-05_14h55.10.008,Gratings_vis_devJG_v0.6,2024.1.5,None,2024-08-05 14h55.22.665256 -0400,
74,0,74,0,380.5447328001028,,,,,,,,,380.52833950007334,380.5447328001028,383.5285469000228,385.5280605000444,baseline,GS09,01,False,2024-08-05_14h55.10.008,Gratings_vis_devJG_v0.6,2024.1.5,None,2024-08-05 14h55.22.665256 -0400,
75,0,75,0,385.5446681000758,,,,,,,,,385.52832370006945,385.5446681000758,388.52818170003593,390.5280123000266,baseline,GS09,01,False,2024-08-05_14h55.10.008,Gratings_vis_devJG_v0.6,2024.1.5,None,2024-08-05 14h55.22.665256 -0400,
76,0,76,0,390.54468270007055,,,,,,,,,390.52830890007317,390.54468270007055,393.5281438000966,395.52821690007113,baseline,GS09,01,False,2024-08-05_14h55.10.008,Gratings_vis_devJG_v0.6,2024.1.5,None,2024-08-05 14h55.22.665256 -0400,
77,0,77,0,395.54463540005963,,,,,,,,,395.5287742000073,395.54463540005963,398.5281083000591,400.52824480005074,baseline,GS09,01,False,2024-08-05_14h55.10.008,Gratings_vis_devJG_v0.6,2024.1.5,None,2024-08-05 14h55.22.665256 -0400,
78,0,78,0,400.54457480006386,,,,,,,,,400.5285123999929,400.54457480006386,403.5280759000452,405.52793690003455,baseline,GS09,01,False,2024-08-05_14h55.10.008,Gratings_vis_devJG_v0.6,2024.1.5,None,2024-08-05 14h55.22.665256 -0400,
79,0,79,0,405.54457380005624,,,,,,,,,405.5282048000954,405.54457380005624,408.52801370003726,410.5282661000965,baseline,GS09,01,False,2024-08-05_14h55.10.008,Gratings_vis_devJG_v0.6,2024.1.5,None,2024-08-05 14h55.22.665256 -0400,
80,0,80,0,410.5445641000988,,,,,,,,,410.52851990005,410.5445641000988,413.52798970008735,415.5279137000907,baseline,GS09,01,False,2024-08-05_14h55.10.008,Gratings_vis_devJG_v0.6,2024.1.5,None,2024-08-05 14h55.22.665256 -0400,
81,0,81,0,415.5444878000999,,,,,,,,,415.52817030006554,415.5444878000999,418.52795240003616,420.5278506000759,baseline,GS09,01,False,2024-08-05_14h55.10.008,Gratings_vis_devJG_v0.6,2024.1.5,None,2024-08-05 14h55.22.665256 -0400,
82,0,82,0,420.54446820006706,,,,,,,,,420.5281388000585,420.54446820006706,423.52803370007314,425.5278594000265,baseline,GS09,01,False,2024-08-05_14h55.10.008,Gratings_vis_devJG_v0.6,2024.1.5,None,2024-08-05 14h55.22.665256 -0400,
83,0,83,0,425.5444831000641,,,,,,,,,425.5281217000447,425.5444831000641,428.5279590000864,430.52780130004976,baseline,GS09,01,False,2024-08-05_14h55.10.008,Gratings_vis_devJG_v0.6,2024.1.5,None,2024-08-05 14h55.22.665256 -0400,
84,0,84,0,430.5444450000068,,,,,,,,,430.52809760009404,430.5444450000068,433.52802740002517,435.5278025000589,baseline,GS09,01,False,2024-08-05_14h55.10.008,Gratings_vis_devJG_v0.6,2024.1.5,None,2024-08-05 14h55.22.665256 -0400,
85,0,85,0,435.5446055000648,,,,,,,,,435.52808230009396,435.5446055000648,438.5279921001056,440.5278935000533,baseline,GS09,01,False,2024-08-05_14h55.10.008,Gratings_vis_devJG_v0.6,2024.1.5,None,2024-08-05 14h55.22.665256 -0400,
86,0,86,0,440.5443561000284,,,,,,,,,440.5281615999993,440.5443561000284,443.5279047000222,445.52777500008233,baseline,GS09,01,False,2024-08-05_14h55.10.008,Gratings_vis_devJG_v0.6,2024.1.5,None,2024-08-05 14h55.22.665256 -0400,
87,0,87,0,445.54475800006185,,,,,,,,,445.5280539999949,445.54475800006185,448.5279730000766,450.52770790003706,baseline,GS09,01,False,2024-08-05_14h55.10.008,Gratings_vis_devJG_v0.6,2024.1.5,None,2024-08-05 14h55.22.665256 -0400,
88,0,88,0,450.5443858000217,,,,,,,,,450.5279676000355,450.5443858000217,453.52782130008563,455.5276931000408,baseline,GS09,01,False,2024-08-05_14h55.10.008,Gratings_vis_devJG_v0.6,2024.1.5,None,2024-08-05 14h55.22.665256 -0400,
89,0,89,0,455.5444794000359,,,,,,,,,455.52794210007414,455.5444794000359,458.52775140001904,460.5276362000732,baseline,GS09,01,False,2024-08-05_14h55.10.008,Gratings_vis_devJG_v0.6,2024.1.5,None,2024-08-05 14h55.22.665256 -0400,
90,0,90,0,460.5442805000348,,,,,,,,,460.5279026000062,460.5442805000348,463.5277218000265,465.5276017000433,baseline,GS09,01,False,2024-08-05_14h55.10.008,Gratings_vis_devJG_v0.6,2024.1.5,None,2024-08-05 14h55.22.665256 -0400,
91,0,91,0,465.5445144000696,,,,,,,,,465.5278887000168,465.5445144000696,468.52771420008503,470.5275715000462,baseline,GS09,01,False,2024-08-05_14h55.10.008,Gratings_vis_devJG_v0.6,2024.1.5,None,2024-08-05 14h55.22.665256 -0400,
92,0,92,0,470.54462550010066,,,,,,,,,470.52783550007734,470.54462550010066,473.5276917000301,475.5275249000406,baseline,GS09,01,False,2024-08-05_14h55.10.008,Gratings_vis_devJG_v0.6,2024.1.5,None,2024-08-05 14h55.22.665256 -0400,
93,0,93,0,475.54420070000924,,,,,,,,,475.5277935001068,475.54420070000924,478.52769290003926,480.5275489001069,baseline,GS09,01,False,2024-08-05_14h55.10.008,Gratings_vis_devJG_v0.6,2024.1.5,None,2024-08-05 14h55.22.665256 -0400,
94,0,94,0,480.544205000042,,,,,,,,,480.5278791000601,480.544205000042,483.52774910000153,485.5275230000261,baseline,GS09,01,False,2024-08-05_14h55.10.008,Gratings_vis_devJG_v0.6,2024.1.5,None,2024-08-05 14h55.22.665256 -0400,
95,0,95,0,485.5442544000689,,,,,,,,,485.52778530004434,485.5442544000689,488.52772760007065,490.52941910002846,baseline,GS09,01,False,2024-08-05_14h55.10.008,Gratings_vis_devJG_v0.6,2024.1.5,None,2024-08-05 14h55.22.665256 -0400,
96,0,96,0,490.54414450004697,,,,,,,,,490.52970480010845,490.54414450004697,493.52776740002446,495.5293181000743,baseline,GS09,01,False,2024-08-05_14h55.10.008,Gratings_vis_devJG_v0.6,2024.1.5,None,2024-08-05 14h55.22.665256 -0400,
97,0,97,0,495.5441193000879,,,,,,,,,495.5295768000651,495.5441193000879,498.52784220001195,500.5288007000927,baseline,GS09,01,False,2024-08-05_14h55.10.008,Gratings_vis_devJG_v0.6,2024.1.5,None,2024-08-05 14h55.22.665256 -0400,
98,0,98,0,500.54622910008766,,,,,,,,,500.52905460004695,500.54622910008766,503.52758370002266,505.52744950004853,baseline,GS09,01,False,2024-08-05_14h55.10.008,Gratings_vis_devJG_v0.6,2024.1.5,None,2024-08-05 14h55.22.665256 -0400,
99,0,99,0,505.54416450008284,,,,,,,,,505.5277114000637,505.54416450008284,508.5277204000158,510.5276157000335,baseline,GS09,01,False,2024-08-05_14h55.10.008,Gratings_vis_devJG_v0.6,2024.1.5,None,2024-08-05 14h55.22.665256 -0400,
100,0,100,0,510.5440531000495,,,,,,,,,510.52787840005476,510.5440531000495,513.5279150001006,515.5276156000327,baseline,GS09,01,False,2024-08-05_14h55.10.008,Gratings_vis_devJG_v0.6,2024.1.5,None,2024-08-05 14h55.22.665256 -0400,
101,0,101,0,515.5440649000229,,,,,,,,,515.5278854999924,515.5440649000229,518.5281102000736,520.5273403000319,baseline,GS09,01,False,2024-08-05_14h55.10.008,Gratings_vis_devJG_v0.6,2024.1.5,None,2024-08-05 14h55.22.665256 -0400,
102,0,102,0,520.5440022000112,,,,,,,,,520.5275903000729,520.5440022000112,523.5283997000661,525.5273496001028,baseline,GS09,01,False,2024-08-05_14h55.10.008,Gratings_vis_devJG_v0.6,2024.1.5,None,2024-08-05 14h55.22.665256 -0400,
103,0,103,0,525.5439539999934,,,,,,,,,525.5276086000958,525.5439539999934,528.5286314000841,530.5275064000161,baseline,GS09,01,False,2024-08-05_14h55.10.008,Gratings_vis_devJG_v0.6,2024.1.5,None,2024-08-05 14h55.22.665256 -0400,
104,0,104,0,530.5439749000361,,,,,,,,,530.5277650000062,530.5439749000361,533.5289047000697,535.5274526000721,baseline,GS09,01,False,2024-08-05_14h55.10.008,Gratings_vis_devJG_v0.6,2024.1.5,None,2024-08-05 14h55.22.665256 -0400,
105,0,105,0,535.5441775000654,,,,,,,,,535.5277025999967,535.5441775000654,538.5292157999938,540.5277036000043,baseline,GS09,01,False,2024-08-05_14h55.10.008,Gratings_vis_devJG_v0.6,2024.1.5,None,2024-08-05 14h55.22.665256 -0400,
106,0,106,0,540.5438694000477,,,,,,,,,540.5279697000515,540.5438694000477,543.5295308000641,545.5280018000631,baseline,GS09,01,False,2024-08-05_14h55.10.008,Gratings_vis_devJG_v0.6,2024.1.5,None,2024-08-05 14h55.22.665256 -0400,
107,0,107,0,545.5446188000496,,,,,,,,,545.5282922000624,545.5446188000496,548.5298718000995,550.5283441001084,baseline,GS09,01,False,2024-08-05_14h55.10.008,Gratings_vis_devJG_v0.6,2024.1.5,None,2024-08-05 14h55.22.665256 -0400,
108,0,108,0,550.5449073000345,,,,,,,,,550.5286292000674,550.5449073000345,553.5301715000533,555.5271172000794,baseline,GS09,01,False,2024-08-05_14h55.10.008,Gratings_vis_devJG_v0.6,2024.1.5,None,2024-08-05 14h55.22.665256 -0400,
109,0,109,0,555.5437631000532,,,,,,,,,555.5273690000176,555.5437631000532,558.5276642000536,560.5272187000373,baseline,GS09,01,False,2024-08-05_14h55.10.008,Gratings_vis_devJG_v0.6,2024.1.5,None,2024-08-05 14h55.22.665256 -0400,
110,0,110,0,560.5437727000099,,,,,,,,,560.5274862000952,560.5437727000099,563.5278091999935,565.5270316000096,baseline,GS09,01,False,2024-08-05_14h55.10.008,Gratings_vis_devJG_v0.6,2024.1.5,None,2024-08-05 14h55.22.665256 -0400,
111,0,111,0,565.5436882000649,,,,,,,,,565.5273536000168,565.5436882000649,568.5276071000844,570.5271385000087,baseline,GS09,01,False,2024-08-05_14h55.10.008,Gratings_vis_devJG_v0.6,2024.1.5,None,2024-08-05 14h55.22.665256 -0400,
112,0,112,0,570.5441435000394,,,,,,,,,570.5273948000977,570.5441435000394,573.5274930000305,575.5270920000039,baseline,GS09,01,False,2024-08-05_14h55.10.008,Gratings_vis_devJG_v0.6,2024.1.5,None,2024-08-05 14h55.22.665256 -0400,
113,0,113,0,575.5436765000923,,,,,,,,,575.5273724000435,575.5436765000923,578.5271440000506,580.5270035000285,baseline,GS09,01,False,2024-08-05_14h55.10.008,Gratings_vis_devJG_v0.6,2024.1.5,None,2024-08-05 14h55.22.665256 -0400,
114,0,114,0,580.5435605000239,,,,,,,,,580.5272933000233,580.5435605000239,583.5270736000966,585.527001200011,baseline,GS09,01,False,2024-08-05_14h55.10.008,Gratings_vis_devJG_v0.6,2024.1.5,None,2024-08-05 14h55.22.665256 -0400,
115,0,115,0,585.5438086000504,,,,,,,,,585.5272555000847,585.5438086000504,588.5271209001075,590.5269855000079,baseline,GS09,01,False,2024-08-05_14h55.10.008,Gratings_vis_devJG_v0.6,2024.1.5,None,2024-08-05 14h55.22.665256 -0400,
116,0,116,0,590.5436300000874,,,,,,,,,590.5272380000679,590.5436300000874,593.527026200085,595.5269767000573,baseline,GS09,01,False,2024-08-05_14h55.10.008,Gratings_vis_devJG_v0.6,2024.1.5,None,2024-08-05 14h55.22.665256 -0400,
117,0,117,0,595.5441053000977,,,,,,,,,595.5272399000823,595.5441053000977,598.5271555000218,600.5269193000859,baseline,GS09,01,False,2024-08-05_14h55.10.008,Gratings_vis_devJG_v0.6,2024.1.5,None,2024-08-05 14h55.22.665256 -0400,
118,0,118,0,600.5435904000187,,,,,,,,,600.5272001000121,600.5435904000187,603.5270497000311,605.5269116000272,baseline,GS09,01,False,2024-08-05_14h55.10.008,Gratings_vis_devJG_v0.6,2024.1.5,None,2024-08-05 14h55.22.665256 -0400,
119,0,119,0,605.5438963000197,,,,,,,,,605.5271992000053,605.5438963000197,608.5272004000144,610.5268515000353,baseline,GS09,01,False,2024-08-05_14h55.10.008,Gratings_vis_devJG_v0.6,2024.1.5,None,2024-08-05 14h55.22.665256 -0400,
