trials.thisRepN,trials.thisTrialN,trials.thisN,trials.thisIndex,thisRow.t,notes,nidaqTrigger.started,text_waiting_message.started,key_resp.started,nidaqTrigger.stopped,key_resp.keys,key_resp.rt,key_resp.duration,display_gratings.started,stim_grayScreen.started,stim_grating.started,stim_grayScreen.stopped,stim_grating.stopped,display_gratings.stopped,Protocol ID,Subject ID,Session ID,Wait for Trigger,date,expName,psychopyVersion,frameRate,expStart,
,,,,,,0.006413100054487586,0.012256600079126656,0.012256600079126656,5.566193200065754,space,5.541418400011025,None,,,,,,,high,GS09,01,False,2024-08-08_17h32.03.086,Gratings_vis_devJG_v0.6,2024.1.5,None,2024-08-08 17h32.52.225029 -0400,
0,0,0,0,5.606844200054184,,,,,,,,,5.604706600075588,5.606844200054184,8.612141500110738,10.595294900005683,10.595294900005683,10.578889600001276,high,GS09,01,False,2024-08-08_17h32.03.086,Gratings_vis_devJG_v0.6,2024.1.5,None,2024-08-08 17h32.52.225029 -0400,
1,0,1,0,10.595294900005683,,,,,,,,,10.579131700098515,10.612054600031115,13.612864300026558,15.596237300080247,15.596237300080247,15.580198000068776,high,GS09,01,False,2024-08-08_17h32.03.086,Gratings_vis_devJG_v0.6,2024.1.5,None,2024-08-08 17h32.52.225029 -0400,
2,0,2,0,15.596237300080247,,,,,,,,,15.580482100020163,15.612921700114384,18.61483100010082,20.59649490006268,20.59649490006268,20.580106000066735,high,GS09,01,False,2024-08-08_17h32.03.086,Gratings_vis_devJG_v0.6,2024.1.5,None,2024-08-08 17h32.52.225029 -0400,
3,0,3,0,20.59649490006268,,,,,,,,,20.580362500040792,20.613187300041318,23.61513760010712,25.596333200111985,25.596333200111985,25.58035660011228,high,GS09,01,False,2024-08-08_17h32.03.086,Gratings_vis_devJG_v0.6,2024.1.5,None,2024-08-08 17h32.52.225029 -0400,
4,0,4,0,25.596333200111985,,,,,,,,,25.580600800109096,25.613425600109622,28.612620800035074,30.59550640010275,30.59550640010275,30.580725300009362,high,GS09,01,False,2024-08-08_17h32.03.086,Gratings_vis_devJG_v0.6,2024.1.5,None,2024-08-08 17h32.52.225029 -0400,
5,0,5,0,30.59550640010275,,,,,,,,,30.58124170009978,30.61224010004662,33.61573770001996,35.59538810001686,35.59538810001686,35.57955790008418,high,GS09,01,False,2024-08-08_17h32.03.086,Gratings_vis_devJG_v0.6,2024.1.5,None,2024-08-08 17h32.52.225029 -0400,
6,0,6,0,35.59538810001686,,,,,,,,,35.579799300059676,35.61212730000261,38.612241200054996,40.59543990006205,40.59543990006205,40.57894810009748,high,GS09,01,False,2024-08-08_17h32.03.086,Gratings_vis_devJG_v0.6,2024.1.5,None,2024-08-08 17h32.52.225029 -0400,
7,0,7,0,40.59543990006205,,,,,,,,,40.57922140008304,40.61218820000067,43.61231800005771,45.595325400005095,45.595325400005095,45.57890560000669,high,GS09,01,False,2024-08-08_17h32.03.086,Gratings_vis_devJG_v0.6,2024.1.5,None,2024-08-08 17h32.52.225029 -0400,
8,0,8,0,45.595325400005095,,,,,,,,,45.579148700111546,45.612005100003444,48.6122994000325,50.59538810001686,50.59538810001686,50.57893290009815,high,GS09,01,False,2024-08-08_17h32.03.086,Gratings_vis_devJG_v0.6,2024.1.5,None,2024-08-08 17h32.52.225029 -0400,
9,0,9,0,50.59538810001686,,,,,,,,,50.579182100016624,50.612068800022826,53.61219550005626,55.59535230009351,55.59535230009351,55.57927159999963,high,GS09,01,False,2024-08-08_17h32.03.086,Gratings_vis_devJG_v0.6,2024.1.5,None,2024-08-08 17h32.52.225029 -0400,
10,0,10,0,55.59535230009351,,,,,,,,,55.57952310005203,55.61208580003586,58.61217060009949,60.595316000049934,60.595316000049934,60.57890690001659,high,GS09,01,False,2024-08-08_17h32.03.086,Gratings_vis_devJG_v0.6,2024.1.5,None,2024-08-08 17h32.52.225029 -0400,
11,0,11,0,60.595316000049934,,,,,,,,,60.579143100068904,60.61208470002748,63.61215190007351,65.59542570007034,65.59542570007034,65.57888720009942,high,GS09,01,False,2024-08-08_17h32.03.086,Gratings_vis_devJG_v0.6,2024.1.5,None,2024-08-08 17h32.52.225029 -0400,
12,0,12,0,65.59542570007034,,,,,,,,,65.57913650001865,65.61209740000777,68.61219270003494,70.59538760001305,70.59538760001305,70.57891500007827,high,GS09,01,False,2024-08-08_17h32.03.086,Gratings_vis_devJG_v0.6,2024.1.5,None,2024-08-08 17h32.52.225029 -0400,
13,0,13,0,70.59538760001305,,,,,,,,,70.57915490004234,70.6121809000615,73.61216130002867,75.59530380007345,75.59530380007345,75.57920870010275,high,GS09,01,False,2024-08-08_17h32.03.086,Gratings_vis_devJG_v0.6,2024.1.5,None,2024-08-08 17h32.52.225029 -0400,
14,0,14,0,75.59530380007345,,,,,,,,,75.5794590000296,75.611983000068,78.61213540006429,80.59526010008994,80.59526010008994,80.57873570010997,high,GS09,01,False,2024-08-08_17h32.03.086,Gratings_vis_devJG_v0.6,2024.1.5,None,2024-08-08 17h32.52.225029 -0400,
15,0,15,0,80.59526010008994,,,,,,,,,80.57898660004139,80.61194460000843,83.61209280008916,85.59526200010441,85.59526200010441,85.57890830002725,high,GS09,01,False,2024-08-08_17h32.03.086,Gratings_vis_devJG_v0.6,2024.1.5,None,2024-08-08 17h32.52.225029 -0400,
16,0,16,0,85.59526200010441,,,,,,,,,85.57917140005156,85.61196960008238,88.61207280005328,90.5952271000715,90.5952271000715,90.5790903000161,high,GS09,01,False,2024-08-08_17h32.03.086,Gratings_vis_devJG_v0.6,2024.1.5,None,2024-08-08 17h32.52.225029 -0400,
17,0,17,0,90.5952271000715,,,,,,,,,90.57933650002815,90.61199040000793,93.61202460003551,95.59517840004992,95.59517840004992,95.57877920009196,high,GS09,01,False,2024-08-08_17h32.03.086,Gratings_vis_devJG_v0.6,2024.1.5,None,2024-08-08 17h32.52.225029 -0400,
18,0,18,0,95.59517840004992,,,,,,,,,95.57903400005307,95.61190670006908,98.61200380010996,100.59559860010631,100.59559860010631,100.57896830001846,high,GS09,01,False,2024-08-08_17h32.03.086,Gratings_vis_devJG_v0.6,2024.1.5,None,2024-08-08 17h32.52.225029 -0400,
19,0,19,0,100.59559860010631,,,,,,,,,100.57943810010329,100.61193950008601,103.61216420005076,105.59515630011447,105.59515630011447,105.57922220008913,high,GS09,01,False,2024-08-08_17h32.03.086,Gratings_vis_devJG_v0.6,2024.1.5,None,2024-08-08 17h32.52.225029 -0400,
20,0,20,0,105.59515630011447,,,,,,,,,105.57947550003882,105.61186020006426,108.61217420001049,110.59514660004061,110.59514660004061,110.5790518000722,high,GS09,01,False,2024-08-08_17h32.03.086,Gratings_vis_devJG_v0.6,2024.1.5,None,2024-08-08 17h32.52.225029 -0400,
21,0,21,0,110.59514660004061,,,,,,,,,110.57929080002941,110.61181920010131,113.61193300003652,115.59510310005862,115.59510310005862,115.57870630000252,high,GS09,01,False,2024-08-08_17h32.03.086,Gratings_vis_devJG_v0.6,2024.1.5,None,2024-08-08 17h32.52.225029 -0400,
22,0,22,0,115.59510310005862,,,,,,,,,115.57895720005035,115.61179160000756,118.61188410001341,120.59510360006243,120.59510360006243,120.57868710008916,high,GS09,01,False,2024-08-08_17h32.03.086,Gratings_vis_devJG_v0.6,2024.1.5,None,2024-08-08 17h32.52.225029 -0400,
23,0,23,0,120.59510360006243,,,,,,,,,120.57893660000991,120.61178810009733,123.61193340003956,125.59508300002199,125.59508300002199,125.57905710011255,high,GS09,01,False,2024-08-08_17h32.03.086,Gratings_vis_devJG_v0.6,2024.1.5,None,2024-08-08 17h32.52.225029 -0400,
24,0,24,0,125.59508300002199,,,,,,,,,125.57931820000522,125.61175340006594,128.61188270000275,130.59504460007884,130.59504460007884,130.57857810007408,high,GS09,01,False,2024-08-08_17h32.03.086,Gratings_vis_devJG_v0.6,2024.1.5,None,2024-08-08 17h32.52.225029 -0400,
25,0,25,0,130.59504460007884,,,,,,,,,130.57882390008308,130.611681300099,133.61184580007102,135.59508980007377,135.59508980007377,135.57852280000225,high,GS09,01,False,2024-08-08_17h32.03.086,Gratings_vis_devJG_v0.6,2024.1.5,None,2024-08-08 17h32.52.225029 -0400,
26,0,26,0,135.59508980007377,,,,,,,,,135.57877320004627,135.61172560008708,138.6117879000958,140.59498450008687,140.59498450008687,140.5789638001006,high,GS09,01,False,2024-08-08_17h32.03.086,Gratings_vis_devJG_v0.6,2024.1.5,None,2024-08-08 17h32.52.225029 -0400,
27,0,27,0,140.59498450008687,,,,,,,,,140.57920610008296,140.61167450004723,143.6117434001062,145.59495280007832,145.59495280007832,145.5788254000945,high,GS09,01,False,2024-08-08_17h32.03.086,Gratings_vis_devJG_v0.6,2024.1.5,None,2024-08-08 17h32.52.225029 -0400,
28,0,28,0,145.59495280007832,,,,,,,,,145.57906580006238,145.61163210007362,148.61164850008208,150.59490920009557,150.59490920009557,150.57882380008232,high,GS09,01,False,2024-08-08_17h32.03.086,Gratings_vis_devJG_v0.6,2024.1.5,None,2024-08-08 17h32.52.225029 -0400,
29,0,29,0,150.59490920009557,,,,,,,,,150.57907850004267,150.61160620010924,153.61176790005993,155.59492480009794,155.59492480009794,155.57878800004255,high,GS09,01,False,2024-08-08_17h32.03.086,Gratings_vis_devJG_v0.6,2024.1.5,None,2024-08-08 17h32.52.225029 -0400,
30,0,30,0,155.59492480009794,,,,,,,,,155.57903640007135,155.6115677000489,158.61194510001224,160.5949955000542,160.5949955000542,160.5787351001054,high,GS09,01,False,2024-08-08_17h32.03.086,Gratings_vis_devJG_v0.6,2024.1.5,None,2024-08-08 17h32.52.225029 -0400,
31,0,31,0,160.5949955000542,,,,,,,,,160.57899120007642,160.61165070009883,163.61175060004462,165.59488280001096,165.59488280001096,165.5787297000643,high,GS09,01,False,2024-08-08_17h32.03.086,Gratings_vis_devJG_v0.6,2024.1.5,None,2024-08-08 17h32.52.225029 -0400,
32,0,32,0,165.59488280001096,,,,,,,,,165.57898650004063,165.611583000049,168.61168590001762,170.59481800009962,170.59481800009962,170.57879960001446,high,GS09,01,False,2024-08-08_17h32.03.086,Gratings_vis_devJG_v0.6,2024.1.5,None,2024-08-08 17h32.52.225029 -0400,
33,0,33,0,170.59481800009962,,,,,,,,,170.57905370008666,170.61152020003647,173.61160980002023,175.5947891001124,175.5947891001124,175.57836530008353,high,GS09,01,False,2024-08-08_17h32.03.086,Gratings_vis_devJG_v0.6,2024.1.5,None,2024-08-08 17h32.52.225029 -0400,
34,0,34,0,175.5947891001124,,,,,,,,,175.5786207000492,175.61149470007513,178.61174840002786,180.5947751000058,180.5947751000058,180.57869049999863,high,GS09,01,False,2024-08-08_17h32.03.086,Gratings_vis_devJG_v0.6,2024.1.5,None,2024-08-08 17h32.52.225029 -0400,
35,0,35,0,180.5947751000058,,,,,,,,,180.5789470000891,180.61146440007724,183.61155760008842,185.59471030009445,185.59471030009445,185.5782694000518,high,GS09,01,False,2024-08-08_17h32.03.086,Gratings_vis_devJG_v0.6,2024.1.5,None,2024-08-08 17h32.52.225029 -0400,
36,0,36,0,185.59471030009445,,,,,,,,,185.57851950009353,185.61140080005862,188.61155100003816,190.59472020005342,190.59472020005342,190.57860940007959,high,GS09,01,False,2024-08-08_17h32.03.086,Gratings_vis_devJG_v0.6,2024.1.5,None,2024-08-08 17h32.52.225029 -0400,
37,0,37,0,190.59472020005342,,,,,,,,,190.57886230002623,190.61139520001598,193.6115949000232,195.59477010008413,195.59477010008413,195.5782469001133,high,GS09,01,False,2024-08-08_17h32.03.086,Gratings_vis_devJG_v0.6,2024.1.5,None,2024-08-08 17h32.52.225029 -0400,
38,0,38,0,195.59477010008413,,,,,,,,,195.5785012000706,195.61135760007892,198.61152230005246,200.5946636000881,200.5946636000881,200.57825480005704,high,GS09,01,False,2024-08-08_17h32.03.086,Gratings_vis_devJG_v0.6,2024.1.5,None,2024-08-08 17h32.52.225029 -0400,
39,0,39,0,200.5946636000881,,,,,,,,,200.57851250004023,200.61132290004753,203.61151050007902,205.59463310008869,205.59463310008869,205.57818770001177,high,GS09,01,False,2024-08-08_17h32.03.086,Gratings_vis_devJG_v0.6,2024.1.5,None,2024-08-08 17h32.52.225029 -0400,
40,0,40,0,205.59463310008869,,,,,,,,,205.57843510003295,205.61130650003906,208.61165500001516,210.59463190007955,210.59463190007955,210.5785491000861,high,GS09,01,False,2024-08-08_17h32.03.086,Gratings_vis_devJG_v0.6,2024.1.5,None,2024-08-08 17h32.52.225029 -0400,
41,0,41,0,210.59463190007955,,,,,,,,,210.57880240003578,210.61129550007172,213.61158910009544,215.59456019999925,215.59456019999925,215.57854640006553,high,GS09,01,False,2024-08-08_17h32.03.086,Gratings_vis_devJG_v0.6,2024.1.5,None,2024-08-08 17h32.52.225029 -0400,
42,0,42,0,215.59456019999925,,,,,,,,,215.5787951000966,215.61125770001672,218.61148150009103,220.59462150000036,220.59462150000036,220.57818770001177,high,GS09,01,False,2024-08-08_17h32.03.086,Gratings_vis_devJG_v0.6,2024.1.5,None,2024-08-08 17h32.52.225029 -0400,
43,0,43,0,220.59462150000036,,,,,,,,,220.57844860001933,220.61123750009574,223.61149880010635,225.59459780005272,225.59459780005272,225.57810880010948,high,GS09,01,False,2024-08-08_17h32.03.086,Gratings_vis_devJG_v0.6,2024.1.5,None,2024-08-08 17h32.52.225029 -0400,
44,0,44,0,225.59459780005272,,,,,,,,,225.57836190005764,225.6112280000234,228.6117685000645,230.59458550007548,230.59458550007548,230.57840750005562,high,GS09,01,False,2024-08-08_17h32.03.086,Gratings_vis_devJG_v0.6,2024.1.5,None,2024-08-08 17h32.52.225029 -0400,
45,0,45,0,230.59458550007548,,,,,,,,,230.57866930007003,230.61124100000598,233.61146670009475,235.59454800002277,235.59454800002277,235.57810680009425,high,GS09,01,False,2024-08-08_17h32.03.086,Gratings_vis_devJG_v0.6,2024.1.5,None,2024-08-08 17h32.52.225029 -0400,
46,0,46,0,235.59454800002277,,,,,,,,,235.57835570001043,235.61118390003685,238.61131320009008,240.59452210005838,240.59452210005838,240.5785845000064,high,GS09,01,False,2024-08-08_17h32.03.086,Gratings_vis_devJG_v0.6,2024.1.5,None,2024-08-08 17h32.52.225029 -0400,
47,0,47,0,240.59452210005838,,,,,,,,,240.57882930000778,240.611607800005,243.6112888000207,245.59445620002225,245.59445620002225,245.57804780011065,high,GS09,01,False,2024-08-08_17h32.03.086,Gratings_vis_devJG_v0.6,2024.1.5,None,2024-08-08 17h32.52.225029 -0400,
48,0,48,0,245.59445620002225,,,,,,,,,245.57830850000028,245.6116368001094,248.61139160010498,,,250.61107570002787,high,GS09,01,False,2024-08-08_17h32.03.086,Gratings_vis_devJG_v0.6,2024.1.5,None,2024-08-08 17h32.52.225029 -0400,
49,0,49,0,250.6288341000909,,,,,,,,,250.61135940009262,250.6288341000909,253.61131590011064,,,255.6110816000728,high,GS09,01,False,2024-08-08_17h32.03.086,Gratings_vis_devJG_v0.6,2024.1.5,None,2024-08-08 17h32.52.225029 -0400,
50,0,50,0,255.62889220006764,,,,,,,,,255.61133260000497,255.62889220006764,258.6112661000807,,,260.6110617000377,high,GS09,01,False,2024-08-08_17h32.03.086,Gratings_vis_devJG_v0.6,2024.1.5,None,2024-08-08 17h32.52.225029 -0400,
51,0,51,0,260.6277123000473,,,,,,,,,260.61137410008814,260.6277123000473,263.611241000006,,,265.6110647000605,high,GS09,01,False,2024-08-08_17h32.03.086,Gratings_vis_devJG_v0.6,2024.1.5,None,2024-08-08 17h32.52.225029 -0400,
52,0,52,0,265.6276918000076,,,,,,,,,265.61135780008044,265.6276918000076,268.61115600005724,,,270.61106670007575,high,GS09,01,False,2024-08-08_17h32.03.086,Gratings_vis_devJG_v0.6,2024.1.5,None,2024-08-08 17h32.52.225029 -0400,
53,0,53,0,270.6276421000948,,,,,,,,,270.61132280004676,270.6276421000948,273.6111569000641,,,275.6110078000929,high,GS09,01,False,2024-08-08_17h32.03.086,Gratings_vis_devJG_v0.6,2024.1.5,None,2024-08-08 17h32.52.225029 -0400,
54,0,54,0,275.6275969000999,,,,,,,,,275.6112886000192,275.6275969000999,278.6114120000275,,,280.61099580000155,high,GS09,01,False,2024-08-08_17h32.03.086,Gratings_vis_devJG_v0.6,2024.1.5,None,2024-08-08 17h32.52.225029 -0400,
55,0,55,0,280.6277860000264,,,,,,,,,280.61125760001596,280.6277860000264,283.61147130001336,,,285.61098680004943,high,GS09,01,False,2024-08-08_17h32.03.086,Gratings_vis_devJG_v0.6,2024.1.5,None,2024-08-08 17h32.52.225029 -0400,
56,0,56,0,285.6275950000854,,,,,,,,,285.6112484000623,285.6275950000854,288.61177900002804,,,290.61092340003233,high,GS09,01,False,2024-08-08_17h32.03.086,Gratings_vis_devJG_v0.6,2024.1.5,None,2024-08-08 17h32.52.225029 -0400,
57,0,57,0,290.6276579000987,,,,,,,,,290.6111747000832,290.6276579000987,293.6120067000156,,,295.61092180002015,high,GS09,01,False,2024-08-08_17h32.03.086,Gratings_vis_devJG_v0.6,2024.1.5,None,2024-08-08 17h32.52.225029 -0400,
58,0,58,0,295.6275651000906,,,,,,,,,295.6111877000658,295.6275651000906,298.61228320002556,,,300.6109452000819,high,GS09,01,False,2024-08-08_17h32.03.086,Gratings_vis_devJG_v0.6,2024.1.5,None,2024-08-08 17h32.52.225029 -0400,
59,0,59,0,300.62770589999855,,,,,,,,,300.6112192000728,300.62770589999855,303.61255460011307,,,305.6111951000057,high,GS09,01,False,2024-08-08_17h32.03.086,Gratings_vis_devJG_v0.6,2024.1.5,None,2024-08-08 17h32.52.225029 -0400,
60,0,60,0,305.6286581000313,,,,,,,,,305.61145250010304,305.6286581000313,308.6128280000994,,,310.61139790003654,high,GS09,01,False,2024-08-08_17h32.03.086,Gratings_vis_devJG_v0.6,2024.1.5,None,2024-08-08 17h32.52.225029 -0400,
61,0,61,0,310.6282207000768,,,,,,,,,310.6116549000144,310.6282207000768,313.61317890009377,,,315.61156910005957,high,GS09,01,False,2024-08-08_17h32.03.086,Gratings_vis_devJG_v0.6,2024.1.5,None,2024-08-08 17h32.52.225029 -0400,
62,0,62,0,315.6281899000751,,,,,,,,,315.61182890005875,315.6281899000751,318.61347130010836,,,320.61197120009456,high,GS09,01,False,2024-08-08_17h32.03.086,Gratings_vis_devJG_v0.6,2024.1.5,None,2024-08-08 17h32.52.225029 -0400,
63,0,63,0,320.628568300046,,,,,,,,,320.61222370003816,320.628568300046,323.61380640009884,,,325.61067010008264,high,GS09,01,False,2024-08-08_17h32.03.086,Gratings_vis_devJG_v0.6,2024.1.5,None,2024-08-08 17h32.52.225029 -0400,
64,0,64,0,325.6274012000067,,,,,,,,,325.61093580001034,325.6274012000067,328.6112275000196,,,330.61061620002147,high,GS09,01,False,2024-08-08_17h32.03.086,Gratings_vis_devJG_v0.6,2024.1.5,None,2024-08-08 17h32.52.225029 -0400,
65,0,65,0,330.62731030001305,,,,,,,,,330.61087110009976,330.62731030001305,333.6107703000307,,,335.6105982000008,high,GS09,01,False,2024-08-08_17h32.03.086,Gratings_vis_devJG_v0.6,2024.1.5,None,2024-08-08 17h32.52.225029 -0400,
66,0,66,0,335.6272528000409,,,,,,,,,335.61085270007607,335.6272528000409,338.6110590000171,,,340.61068740009796,high,GS09,01,False,2024-08-08_17h32.03.086,Gratings_vis_devJG_v0.6,2024.1.5,None,2024-08-08 17h32.52.225029 -0400,
67,0,67,0,340.62723680003546,,,,,,,,,340.6109825000167,340.62723680003546,343.610725000035,,,345.61058570002206,high,GS09,01,False,2024-08-08_17h32.03.086,Gratings_vis_devJG_v0.6,2024.1.5,None,2024-08-08 17h32.52.225029 -0400,
68,0,68,0,345.6271480000578,,,,,,,,,345.6108391000889,345.6271480000578,348.6106537000742,,,350.6105289000552,high,GS09,01,False,2024-08-08_17h32.03.086,Gratings_vis_devJG_v0.6,2024.1.5,None,2024-08-08 17h32.52.225029 -0400,
69,0,69,0,350.62709070008714,,,,,,,,,350.61078550003003,350.62709070008714,353.6108629000373,,,355.610504600103,high,GS09,01,False,2024-08-08_17h32.03.086,Gratings_vis_devJG_v0.6,2024.1.5,None,2024-08-08 17h32.52.225029 -0400,
70,0,70,0,355.6271844001021,,,,,,,,,355.6107683000155,355.6271844001021,358.6108800000511,,,360.6107512000017,high,GS09,01,False,2024-08-08_17h32.03.086,Gratings_vis_devJG_v0.6,2024.1.5,None,2024-08-08 17h32.52.225029 -0400,
71,0,71,0,360.62725230003707,,,,,,,,,360.61103260004893,360.62725230003707,363.6106721000979,,,365.6104940000223,high,GS09,01,False,2024-08-08_17h32.03.086,Gratings_vis_devJG_v0.6,2024.1.5,None,2024-08-08 17h32.52.225029 -0400,
72,0,72,0,365.6272882000776,,,,,,,,,365.6107568000443,365.6272882000776,368.61057850008365,,,370.61043360002805,high,GS09,01,False,2024-08-08_17h32.03.086,Gratings_vis_devJG_v0.6,2024.1.5,None,2024-08-08 17h32.52.225029 -0400,
73,0,73,0,370.62707930000033,,,,,,,,,370.61068770010024,370.62707930000033,373.6105540000135,,,375.61041940003633,high,GS09,01,False,2024-08-08_17h32.03.086,Gratings_vis_devJG_v0.6,2024.1.5,None,2024-08-08 17h32.52.225029 -0400,
74,0,74,0,375.6270652000094,,,,,,,,,375.6107046001125,375.6270652000094,378.61054250004236,,,380.6103095000144,high,GS09,01,False,2024-08-08_17h32.03.086,Gratings_vis_devJG_v0.6,2024.1.5,None,2024-08-08 17h32.52.225029 -0400,
75,0,75,0,380.62705180002376,,,,,,,,,380.6105607000645,380.62705180002376,383.61075860005803,,,385.6103745000437,high,GS09,01,False,2024-08-08_17h32.03.086,Gratings_vis_devJG_v0.6,2024.1.5,None,2024-08-08 17h32.52.225029 -0400,
76,0,76,0,385.62704250006936,,,,,,,,,385.61065460008103,385.62704250006936,388.6105224000057,,,390.6103512000991,high,GS09,01,False,2024-08-08_17h32.03.086,Gratings_vis_devJG_v0.6,2024.1.5,None,2024-08-08 17h32.52.225029 -0400,
77,0,77,0,390.62701040005777,,,,,,,,,390.610645400011,390.62701040005777,393.6104545000708,,,395.6103026000783,high,GS09,01,False,2024-08-08_17h32.03.086,Gratings_vis_devJG_v0.6,2024.1.5,None,2024-08-08 17h32.52.225029 -0400,
78,0,78,0,395.6269694000948,,,,,,,,,395.6105620000744,395.6269694000948,398.6104723000899,,,400.6105012000771,high,GS09,01,False,2024-08-08_17h32.03.086,Gratings_vis_devJG_v0.6,2024.1.5,None,2024-08-08 17h32.52.225029 -0400,
79,0,79,0,400.62719410005957,,,,,,,,,400.6107714000391,400.62719410005957,403.61043310002424,,,405.61032800003886,high,GS09,01,False,2024-08-08_17h32.03.086,Gratings_vis_devJG_v0.6,2024.1.5,None,2024-08-08 17h32.52.225029 -0400,
80,0,80,0,405.62693620007485,,,,,,,,,405.6106003000168,405.62693620007485,408.6104118000949,,,410.61024940002244,high,GS09,01,False,2024-08-08_17h32.03.086,Gratings_vis_devJG_v0.6,2024.1.5,None,2024-08-08 17h32.52.225029 -0400,
81,0,81,0,410.62692560011055,,,,,,,,,410.6105279000476,410.62692560011055,413.61061370000243,,,415.61022300005425,high,GS09,01,False,2024-08-08_17h32.03.086,Gratings_vis_devJG_v0.6,2024.1.5,None,2024-08-08 17h32.52.225029 -0400,
82,0,82,0,415.62692220008466,,,,,,,,,415.61052060010843,415.62692220008466,418.61043750005774,,,420.6102304001106,high,GS09,01,False,2024-08-08_17h32.03.086,Gratings_vis_devJG_v0.6,2024.1.5,None,2024-08-08 17h32.52.225029 -0400,
83,0,83,0,420.62685730005614,,,,,,,,,420.61048720008694,420.62685730005614,423.61042580008507,,,425.6102682000492,high,GS09,01,False,2024-08-08_17h32.03.086,Gratings_vis_devJG_v0.6,2024.1.5,None,2024-08-08 17h32.52.225029 -0400,
84,0,84,0,425.6268230000278,,,,,,,,,425.6105505001033,425.6268230000278,428.6103103000205,,,430.6101698001148,high,GS09,01,False,2024-08-08_17h32.03.086,Gratings_vis_devJG_v0.6,2024.1.5,None,2024-08-08 17h32.52.225029 -0400,
85,0,85,0,430.62682210002095,,,,,,,,,430.61046770005487,430.62682210002095,433.6101831000997,,,435.6101090000011,high,GS09,01,False,2024-08-08_17h32.03.086,Gratings_vis_devJG_v0.6,2024.1.5,None,2024-08-08 17h32.52.225029 -0400,
86,0,86,0,435.6267979000695,,,,,,,,,435.6103965000948,435.6267979000695,438.6101657000836,,,440.610235500033,high,GS09,01,False,2024-08-08_17h32.03.086,Gratings_vis_devJG_v0.6,2024.1.5,None,2024-08-08 17h32.52.225029 -0400,
87,0,87,0,440.6269744000165,,,,,,,,,440.610504600103,440.6269744000165,443.6101271000225,,,445.6100767001044,high,GS09,01,False,2024-08-08_17h32.03.086,Gratings_vis_devJG_v0.6,2024.1.5,None,2024-08-08 17h32.52.225029 -0400,
88,0,88,0,445.6267702000914,,,,,,,,,445.6103418000275,445.6267702000914,448.6101561000105,,,450.6100516000297,high,GS09,01,False,2024-08-08_17h32.03.086,Gratings_vis_devJG_v0.6,2024.1.5,None,2024-08-08 17h32.52.225029 -0400,
89,0,89,0,450.62668520002626,,,,,,,,,450.6103279000381,450.62668520002626,453.61020700004883,,,455.61004090006463,high,GS09,01,False,2024-08-08_17h32.03.086,Gratings_vis_devJG_v0.6,2024.1.5,None,2024-08-08 17h32.52.225029 -0400,
90,0,90,0,455.6266721000429,,,,,,,,,455.61029410001356,455.6266721000429,458.6104733000975,,,460.61029160011094,high,GS09,01,False,2024-08-08_17h32.03.086,Gratings_vis_devJG_v0.6,2024.1.5,None,2024-08-08 17h32.52.225029 -0400,
91,0,91,0,460.6266947000986,,,,,,,,,460.6105665001087,460.6266947000986,463.61009360000025,,,465.60993430006783,high,GS09,01,False,2024-08-08_17h32.03.086,Gratings_vis_devJG_v0.6,2024.1.5,None,2024-08-08 17h32.52.225029 -0400,
92,0,92,0,465.62656050000805,,,,,,,,,465.6101786000654,465.62656050000805,468.61006490001455,,,470.6099600000307,high,GS09,01,False,2024-08-08_17h32.03.086,Gratings_vis_devJG_v0.6,2024.1.5,None,2024-08-08 17h32.52.225029 -0400,
93,0,93,0,470.6265624000225,,,,,,,,,470.6102490000194,470.6265624000225,473.6100974000292,,,475.609945800039,high,GS09,01,False,2024-08-08_17h32.03.086,Gratings_vis_devJG_v0.6,2024.1.5,None,2024-08-08 17h32.52.225029 -0400,
94,0,94,0,475.62666320009157,,,,,,,,,475.6102058000397,475.62666320009157,478.61003570002504,,,480.6099238001043,high,GS09,01,False,2024-08-08_17h32.03.086,Gratings_vis_devJG_v0.6,2024.1.5,None,2024-08-08 17h32.52.225029 -0400,
95,0,95,0,480.6265175000299,,,,,,,,,480.6101864000084,480.6265175000299,483.6100480000023,,,485.60988560004625,high,GS09,01,False,2024-08-08_17h32.03.086,Gratings_vis_devJG_v0.6,2024.1.5,None,2024-08-08 17h32.52.225029 -0400,
96,0,96,0,485.626547700027,,,,,,,,,485.6101652000798,485.626547700027,488.61002770008054,,,490.6098490000004,high,GS09,01,False,2024-08-08_17h32.03.086,Gratings_vis_devJG_v0.6,2024.1.5,None,2024-08-08 17h32.52.225029 -0400,
97,0,97,0,490.6264846000122,,,,,,,,,490.6101101000095,490.6264846000122,493.6100143000949,,,495.6098747000797,high,GS09,01,False,2024-08-08_17h32.03.086,Gratings_vis_devJG_v0.6,2024.1.5,None,2024-08-08 17h32.52.225029 -0400,
98,0,98,0,495.6264634000836,,,,,,,,,495.6101566000143,495.6264634000836,498.60993320005946,,,500.60978730011266,high,GS09,01,False,2024-08-08_17h32.03.086,Gratings_vis_devJG_v0.6,2024.1.5,None,2024-08-08 17h32.52.225029 -0400,
99,0,99,0,500.62649460008834,,,,,,,,,500.61005270003807,500.62649460008834,503.61000770004466,,,505.60977800004184,high,GS09,01,False,2024-08-08_17h32.03.086,Gratings_vis_devJG_v0.6,2024.1.5,None,2024-08-08 17h32.52.225029 -0400,
100,0,100,0,505.62642010010313,,,,,,,,,505.6100438000867,505.62642010010313,508.6099344000686,,,510.6098684000317,high,GS09,01,False,2024-08-08_17h32.03.086,Gratings_vis_devJG_v0.6,2024.1.5,None,2024-08-08 17h32.52.225029 -0400,
101,0,101,0,510.6264476000797,,,,,,,,,510.6101598000387,510.6264476000797,513.6099028000608,,,515.6098063000245,high,GS09,01,False,2024-08-08_17h32.03.086,Gratings_vis_devJG_v0.6,2024.1.5,None,2024-08-08 17h32.52.225029 -0400,
102,0,102,0,515.6265153000131,,,,,,,,,515.6100601000944,515.6265153000131,518.6099294000305,,,520.6097677000798,high,GS09,01,False,2024-08-08_17h32.03.086,Gratings_vis_devJG_v0.6,2024.1.5,None,2024-08-08 17h32.52.225029 -0400,
103,0,103,0,520.6263191000326,,,,,,,,,520.6100513000274,520.6263191000326,523.6098970000166,,,525.6097381000873,high,GS09,01,False,2024-08-08_17h32.03.086,Gratings_vis_devJG_v0.6,2024.1.5,None,2024-08-08 17h32.52.225029 -0400,
104,0,104,0,525.626354200067,,,,,,,,,525.6099923000438,525.626354200067,528.6114590000361,,,530.6102860000683,high,GS09,01,False,2024-08-08_17h32.03.086,Gratings_vis_devJG_v0.6,2024.1.5,None,2024-08-08 17h32.52.225029 -0400,
105,0,105,0,530.6262898000423,,,,,,,,,530.6105653000996,530.6262898000423,533.6110951000592,,,535.609888200066,high,GS09,01,False,2024-08-08_17h32.03.086,Gratings_vis_devJG_v0.6,2024.1.5,None,2024-08-08 17h32.52.225029 -0400,
106,0,106,0,535.6262926000636,,,,,,,,,535.6101711000083,535.6262926000636,538.6109745000722,,,540.6101810000837,high,GS09,01,False,2024-08-08_17h32.03.086,Gratings_vis_devJG_v0.6,2024.1.5,None,2024-08-08 17h32.52.225029 -0400,
107,0,107,0,540.6267826000694,,,,,,,,,540.6104418000905,540.6267826000694,543.6099319000496,,,545.6096091000363,high,GS09,01,False,2024-08-08_17h32.03.086,Gratings_vis_devJG_v0.6,2024.1.5,None,2024-08-08 17h32.52.225029 -0400,
108,0,108,0,545.6269630000461,,,,,,,,,545.6098858000478,545.6269630000461,548.609758000006,,,550.6109466000926,high,GS09,01,False,2024-08-08_17h32.03.086,Gratings_vis_devJG_v0.6,2024.1.5,None,2024-08-08 17h32.52.225029 -0400,
109,0,109,0,550.6268052000087,,,,,,,,,550.6112344000721,550.6268052000087,553.6097019000445,,,555.611023500096,high,GS09,01,False,2024-08-08_17h32.03.086,Gratings_vis_devJG_v0.6,2024.1.5,None,2024-08-08 17h32.52.225029 -0400,
110,0,110,0,555.627699200064,,,,,,,,,555.6113257000688,555.627699200064,558.6096790001029,,,560.6095569001045,high,GS09,01,False,2024-08-08_17h32.03.086,Gratings_vis_devJG_v0.6,2024.1.5,None,2024-08-08 17h32.52.225029 -0400,
111,0,111,0,560.6261661000317,,,,,,,,,560.6098137000808,560.6261661000317,563.6096324000973,,,565.6095533000771,high,GS09,01,False,2024-08-08_17h32.03.086,Gratings_vis_devJG_v0.6,2024.1.5,None,2024-08-08 17h32.52.225029 -0400,
112,0,112,0,565.6281438000733,,,,,,,,,565.6098599000834,565.6281438000733,568.6096538000274,,,570.6094621000811,high,GS09,01,False,2024-08-08_17h32.03.086,Gratings_vis_devJG_v0.6,2024.1.5,None,2024-08-08 17h32.52.225029 -0400,
113,0,113,0,570.6261660000309,,,,,,,,,570.6097310000332,570.6261660000309,573.6099297000328,,,575.6094807001064,high,GS09,01,False,2024-08-08_17h32.03.086,Gratings_vis_devJG_v0.6,2024.1.5,None,2024-08-08 17h32.52.225029 -0400,
114,0,114,0,575.626038000104,,,,,,,,,575.609741799999,575.626038000104,578.6098665000172,,,580.6095284000039,high,GS09,01,False,2024-08-08_17h32.03.086,Gratings_vis_devJG_v0.6,2024.1.5,None,2024-08-08 17h32.52.225029 -0400,
115,0,115,0,580.6260787000647,,,,,,,,,580.6098164001014,580.6260787000647,583.6101407000097,,,585.6094233000185,high,GS09,01,False,2024-08-08_17h32.03.086,Gratings_vis_devJG_v0.6,2024.1.5,None,2024-08-08 17h32.52.225029 -0400,
116,0,116,0,585.6260673000943,,,,,,,,,585.6096867000451,585.6260673000943,588.6104261000874,,,590.6095842000796,high,GS09,01,False,2024-08-08_17h32.03.086,Gratings_vis_devJG_v0.6,2024.1.5,None,2024-08-08 17h32.52.225029 -0400,
117,0,117,0,590.6260302000446,,,,,,,,,590.6098610000918,590.6260302000446,593.6106593000004,,,595.6093741001096,high,GS09,01,False,2024-08-08_17h32.03.086,Gratings_vis_devJG_v0.6,2024.1.5,None,2024-08-08 17h32.52.225029 -0400,
118,0,118,0,595.6259639000054,,,,,,,,,595.6096328001004,595.6259639000054,598.6110316000413,,,600.6103775000665,high,GS09,01,False,2024-08-08_17h32.03.086,Gratings_vis_devJG_v0.6,2024.1.5,None,2024-08-08 17h32.52.225029 -0400,
119,0,119,0,600.6261034000199,,,,,,,,,600.6106387000764,600.6261034000199,603.6112614000449,,,605.6097876001149,high,GS09,01,False,2024-08-08_17h32.03.086,Gratings_vis_devJG_v0.6,2024.1.5,None,2024-08-08 17h32.52.225029 -0400,
