trials.thisRepN,trials.thisTrialN,trials.thisN,trials.thisIndex,thisRow.t,notes,nidaqTrigger.started,text_waiting_message.started,key_resp.started,nidaqTrigger.stopped,key_resp.keys,key_resp.rt,key_resp.duration,display_gratings.started,stim_grayScreen.started,stim_grating.started,stim_grayScreen.stopped,stim_grating.stopped,display_gratings.stopped,Protocol ID,Subject ID,Session ID,Wait for Trigger,date,expName,psychopyVersion,frameRate,expStart,
,,,,,,0.07131039997329935,0.07350639998912811,0.07350639998912811,23.35077399999136,space,23.270078200032003,None,,,,,,,FOV1,GS15,01,False,2024-08-02_20h11.17.298,Gratings_vis_devJG_v0.6,2024.1.5,None,2024-08-02 20h11.27.100916 -0400,
0,0,0,0,23.400829199992586,,,,,,,,,23.398670999973547,23.400829199992586,26.398216300003696,28.398519599984866,28.398519599984866,28.38198010000633,FOV1,GS15,01,False,2024-08-02_20h11.17.298,Gratings_vis_devJG_v0.6,2024.1.5,None,2024-08-02 20h11.27.100916 -0400,
1,0,1,0,28.398519599984866,,,,,,,,,28.382168099982664,28.398519599984866,31.398588699987158,33.398687199980486,33.398687199980486,33.38228869996965,FOV1,GS15,01,False,2024-08-02_20h11.17.298,Gratings_vis_devJG_v0.6,2024.1.5,None,2024-08-02 20h11.27.100916 -0400,
2,0,2,0,33.398687199980486,,,,,,,,,33.38247549999505,33.398687199980486,36.398489099985454,38.39851179998368,38.39851179998368,38.38214000000153,FOV1,GS15,01,False,2024-08-02_20h11.17.298,Gratings_vis_devJG_v0.6,2024.1.5,None,2024-08-02 20h11.27.100916 -0400,
3,0,3,0,38.39851179998368,,,,,,,,,38.38232380000409,38.39851179998368,41.398481699987315,43.398481799988076,43.398481799988076,43.38198399997782,FOV1,GS15,01,False,2024-08-02_20h11.17.298,Gratings_vis_devJG_v0.6,2024.1.5,None,2024-08-02 20h11.27.100916 -0400,
4,0,4,0,43.398481799988076,,,,,,,,,43.382161399989855,43.398481799988076,46.39852139999857,48.39840899995761,48.39840899995761,48.38202669995371,FOV1,GS15,01,False,2024-08-02_20h11.17.298,Gratings_vis_devJG_v0.6,2024.1.5,None,2024-08-02 20h11.27.100916 -0400,
5,0,5,0,48.39840899995761,,,,,,,,,48.382414799998514,48.39840899995761,51.39840760000516,53.3984048999846,53.3984048999846,53.382333599962294,FOV1,GS15,01,False,2024-08-02_20h11.17.298,Gratings_vis_devJG_v0.6,2024.1.5,None,2024-08-02 20h11.27.100916 -0400,
6,0,6,0,53.3984048999846,,,,,,,,,53.38251379999565,53.3984048999846,56.39858539996203,58.39834879996488,58.39834879996488,58.383421499980614,FOV1,GS15,01,False,2024-08-02_20h11.17.298,Gratings_vis_devJG_v0.6,2024.1.5,None,2024-08-02 20h11.27.100916 -0400,
7,0,7,0,58.39834879996488,,,,,,,,,58.383604699978605,58.39834879996488,61.3986317999661,63.398366099980194,63.398366099980194,63.382358799979556,FOV1,GS15,01,False,2024-08-02_20h11.17.298,Gratings_vis_devJG_v0.6,2024.1.5,None,2024-08-02 20h11.27.100916 -0400,
8,0,8,0,63.398366099980194,,,,,,,,,63.38256840000395,63.398366099980194,66.39859060000163,68.39837419998366,68.39837419998366,68.3819036000059,FOV1,GS15,01,False,2024-08-02_20h11.17.298,Gratings_vis_devJG_v0.6,2024.1.5,None,2024-08-02 20h11.27.100916 -0400,
9,0,9,0,68.39837419998366,,,,,,,,,68.38208670000313,68.39837419998366,71.3985802999814,73.39830499998061,73.39830499998061,73.38220589997945,FOV1,GS15,01,False,2024-08-02_20h11.17.298,Gratings_vis_devJG_v0.6,2024.1.5,None,2024-08-02 20h11.27.100916 -0400,
10,0,10,0,73.39830499998061,,,,,,,,,73.38238769996678,73.39830499998061,76.39848889998393,78.39823469996918,78.39823469996918,78.38184990000445,FOV1,GS15,01,False,2024-08-02_20h11.17.298,Gratings_vis_devJG_v0.6,2024.1.5,None,2024-08-02 20h11.27.100916 -0400,
11,0,11,0,78.39823469996918,,,,,,,,,78.38202869996894,78.39823469996918,81.39849229995161,83.39845029998105,83.39845029998105,83.38244099996518,FOV1,GS15,01,False,2024-08-02_20h11.17.298,Gratings_vis_devJG_v0.6,2024.1.5,None,2024-08-02 20h11.27.100916 -0400,
12,0,12,0,83.39845029998105,,,,,,,,,83.38261779997265,83.39845029998105,86.3984392999555,88.39824720000615,88.39824720000615,88.3821335999528,FOV1,GS15,01,False,2024-08-02_20h11.17.298,Gratings_vis_devJG_v0.6,2024.1.5,None,2024-08-02 20h11.27.100916 -0400,
13,0,13,0,88.39824720000615,,,,,,,,,88.38232059997972,88.39824720000615,91.39844169997377,93.3983031999669,93.3983031999669,93.38180169998668,FOV1,GS15,01,False,2024-08-02_20h11.17.298,Gratings_vis_devJG_v0.6,2024.1.5,None,2024-08-02 20h11.27.100916 -0400,
14,0,14,0,93.3983031999669,,,,,,,,,93.38200649997452,93.3983031999669,96.3983859999571,98.39825319999363,98.39825319999363,98.38229669997236,FOV1,GS15,01,False,2024-08-02_20h11.17.298,Gratings_vis_devJG_v0.6,2024.1.5,None,2024-08-02 20h11.27.100916 -0400,
15,0,15,0,98.39825319999363,,,,,,,,,98.38248609995935,98.39825319999363,101.39834809995955,103.39815699995961,103.39815699995961,103.38171309995232,FOV1,GS15,01,False,2024-08-02_20h11.17.298,Gratings_vis_devJG_v0.6,2024.1.5,None,2024-08-02 20h11.27.100916 -0400,
16,0,16,0,103.39815699995961,,,,,,,,,103.38190019998001,103.39815699995961,106.39830080000684,108.39811639999971,108.39811639999971,108.38224779994925,FOV1,GS15,01,False,2024-08-02_20h11.17.298,Gratings_vis_devJG_v0.6,2024.1.5,None,2024-08-02 20h11.27.100916 -0400,
17,0,17,0,108.39811639999971,,,,,,,,,108.38284549996024,108.39811639999971,111.39846349996515,113.39807619998464,113.39807619998464,113.3820049999631,FOV1,GS15,01,False,2024-08-02_20h11.17.298,Gratings_vis_devJG_v0.6,2024.1.5,None,2024-08-02 20h11.27.100916 -0400,
18,0,18,0,113.39807619998464,,,,,,,,,113.38218939997023,113.39807619998464,116.39828879997367,118.39813679998042,118.39813679998042,118.3815992999589,FOV1,GS15,01,False,2024-08-02_20h11.17.298,Gratings_vis_devJG_v0.6,2024.1.5,None,2024-08-02 20h11.27.100916 -0400,
19,0,19,0,118.39813679998042,,,,,,,,,118.38177219999488,118.39813679998042,121.39828229998238,123.39801730000181,123.39801730000181,123.38190399995074,FOV1,GS15,01,False,2024-08-02_20h11.17.298,Gratings_vis_devJG_v0.6,2024.1.5,None,2024-08-02 20h11.27.100916 -0400,
20,0,20,0,123.39801730000181,,,,,,,,,123.38207649998367,123.39801730000181,126.39822239999194,128.39801309996983,128.39801309996983,128.3815630999743,FOV1,GS15,01,False,2024-08-02_20h11.17.298,Gratings_vis_devJG_v0.6,2024.1.5,None,2024-08-02 20h11.27.100916 -0400,
21,0,21,0,128.39801309996983,,,,,,,,,128.38174719997915,128.39801309996983,131.3982995999977,133.39798089995747,133.39798089995747,133.38193089998094,FOV1,GS15,01,False,2024-08-02_20h11.17.298,Gratings_vis_devJG_v0.6,2024.1.5,None,2024-08-02 20h11.27.100916 -0400,
22,0,22,0,133.39798089995747,,,,,,,,,133.38210919999983,133.39798089995747,136.3998517,138.3984530000016,138.3984530000016,138.3817821999546,FOV1,GS15,01,False,2024-08-02_20h11.17.298,Gratings_vis_devJG_v0.6,2024.1.5,None,2024-08-02 20h11.27.100916 -0400,
23,0,23,0,138.3984530000016,,,,,,,,,138.38195779995294,138.3984530000016,141.39978839998366,143.3984700999572,143.3984700999572,143.38152579998132,FOV1,GS15,01,False,2024-08-02_20h11.17.298,Gratings_vis_devJG_v0.6,2024.1.5,None,2024-08-02 20h11.27.100916 -0400,
24,0,24,0,143.3984700999572,,,,,,,,,143.38170159998117,143.3984700999572,146.39987439999823,148.39887699997053,148.39887699997053,148.383099699975,FOV1,GS15,01,False,2024-08-02_20h11.17.298,Gratings_vis_devJG_v0.6,2024.1.5,None,2024-08-02 20h11.27.100916 -0400,
25,0,25,0,148.39887699997053,,,,,,,,,148.38328279997222,148.39887699997053,151.39825729996664,153.3993429999682,153.3993429999682,153.38274189998629,FOV1,GS15,01,False,2024-08-02_20h11.17.298,Gratings_vis_devJG_v0.6,2024.1.5,None,2024-08-02 20h11.27.100916 -0400,
26,0,26,0,153.3993429999682,,,,,,,,,153.38292209996143,153.3993429999682,156.39812399999937,158.3978612999781,158.3978612999781,158.38145169999916,FOV1,GS15,01,False,2024-08-02_20h11.17.298,Gratings_vis_devJG_v0.6,2024.1.5,None,2024-08-02 20h11.27.100916 -0400,
27,0,27,0,158.3978612999781,,,,,,,,,158.381629099953,158.3978612999781,161.39804279996315,163.3996715999674,163.3996715999674,163.38142659998266,FOV1,GS15,01,False,2024-08-02_20h11.17.298,Gratings_vis_devJG_v0.6,2024.1.5,None,2024-08-02 20h11.27.100916 -0400,
28,0,28,0,163.3996715999674,,,,,,,,,163.38160429999698,163.3996715999674,166.39802959997905,168.39953429996967,168.39953429996967,168.3814083999605,FOV1,GS15,01,False,2024-08-02_20h11.17.298,Gratings_vis_devJG_v0.6,2024.1.5,None,2024-08-02 20h11.27.100916 -0400,
29,0,29,0,168.39953429996967,,,,,,,,,168.38159999996424,168.39953429996967,171.39842369995313,173.39776540000457,173.39776540000457,173.38170529995114,FOV1,GS15,01,False,2024-08-02_20h11.17.298,Gratings_vis_devJG_v0.6,2024.1.5,None,2024-08-02 20h11.27.100916 -0400,
30,0,30,0,173.39776540000457,,,,,,,,,173.3819296999718,173.39776540000457,176.39796939998632,178.39773859997513,178.39773859997513,178.38129019999178,FOV1,GS15,01,False,2024-08-02_20h11.17.298,Gratings_vis_devJG_v0.6,2024.1.5,None,2024-08-02 20h11.27.100916 -0400,
31,0,31,0,178.39773859997513,,,,,,,,,178.38147530000424,178.39773859997513,181.39810130000114,183.39772569999332,183.39772569999332,183.38179689995013,FOV1,GS15,01,False,2024-08-02_20h11.17.298,Gratings_vis_devJG_v0.6,2024.1.5,None,2024-08-02 20h11.27.100916 -0400,
32,0,32,0,183.39772569999332,,,,,,,,,183.3819829999702,183.39772569999332,186.39805979997618,188.39772579999408,188.39772579999408,188.38168769999174,FOV1,GS15,01,False,2024-08-02_20h11.17.298,Gratings_vis_devJG_v0.6,2024.1.5,None,2024-08-02 20h11.27.100916 -0400,
33,0,33,0,188.39772579999408,,,,,,,,,188.38187389995437,188.39772579999408,191.3983387000044,193.39780089998385,193.39780089998385,193.38162869994994,FOV1,GS15,01,False,2024-08-02_20h11.17.298,Gratings_vis_devJG_v0.6,2024.1.5,None,2024-08-02 20h11.27.100916 -0400,
34,0,34,0,193.39780089998385,,,,,,,,,193.38181259995326,193.39780089998385,196.39858529996127,198.3975642999867,198.3975642999867,198.38113659998635,FOV1,GS15,01,False,2024-08-02_20h11.17.298,Gratings_vis_devJG_v0.6,2024.1.5,None,2024-08-02 20h11.27.100916 -0400,
35,0,35,0,198.3975642999867,,,,,,,,,198.38133269996615,198.3975642999867,201.39890329999616,203.39776259998325,203.39776259998325,203.38165989995468,FOV1,GS15,01,False,2024-08-02_20h11.17.298,Gratings_vis_devJG_v0.6,2024.1.5,None,2024-08-02 20h11.27.100916 -0400,
36,0,36,0,203.39776259998325,,,,,,,,,203.3818719999981,203.39776259998325,206.3991820999654,208.3977740999544,208.3977740999544,208.3813450000016,FOV1,GS15,01,False,2024-08-02_20h11.17.298,Gratings_vis_devJG_v0.6,2024.1.5,None,2024-08-02 20h11.27.100916 -0400,
37,0,37,0,208.3977740999544,,,,,,,,,208.38153369998327,208.3977740999544,211.3994837999926,213.3974581999937,213.3974581999937,213.38246649998473,FOV1,GS15,01,False,2024-08-02_20h11.17.298,Gratings_vis_devJG_v0.6,2024.1.5,None,2024-08-02 20h11.27.100916 -0400,
38,0,38,0,213.3974581999937,,,,,,,,,213.382664499979,213.3974581999937,216.39991489995737,218.39839799999027,218.39839799999027,218.38189419999253,FOV1,GS15,01,False,2024-08-02_20h11.17.298,Gratings_vis_devJG_v0.6,2024.1.5,None,2024-08-02 20h11.27.100916 -0400,
39,0,39,0,218.39839799999027,,,,,,,,,218.3820797999506,218.39839799999027,221.40012299997034,223.39744559995597,223.39744559995597,223.38098079996416,FOV1,GS15,01,False,2024-08-02_20h11.17.298,Gratings_vis_devJG_v0.6,2024.1.5,None,2024-08-02 20h11.27.100916 -0400,
40,0,40,0,223.39744559995597,,,,,,,,,223.38116509997053,223.39744559995597,226.39761659997748,228.3973888999899,228.3973888999899,228.38092579995282,FOV1,GS15,01,False,2024-08-02_20h11.17.298,Gratings_vis_devJG_v0.6,2024.1.5,None,2024-08-02 20h11.27.100916 -0400,
41,0,41,0,228.3973888999899,,,,,,,,,228.38111590000335,228.3973888999899,231.3978322999901,233.39751499996055,233.39751499996055,233.38127909996547,FOV1,GS15,01,False,2024-08-02_20h11.17.298,Gratings_vis_devJG_v0.6,2024.1.5,None,2024-08-02 20h11.27.100916 -0400,
42,0,42,0,233.39751499996055,,,,,,,,,233.3814679000061,233.39751499996055,236.3975589000038,238.39733720000368,238.39733720000368,238.38086439995095,FOV1,GS15,01,False,2024-08-02_20h11.17.298,Gratings_vis_devJG_v0.6,2024.1.5,None,2024-08-02 20h11.27.100916 -0400,
43,0,43,0,238.39733720000368,,,,,,,,,238.38104959996417,238.39733720000368,241.3973122999887,243.39727279997896,243.39727279997896,243.3808815999655,FOV1,GS15,01,False,2024-08-02_20h11.17.298,Gratings_vis_devJG_v0.6,2024.1.5,None,2024-08-02 20h11.27.100916 -0400,
44,0,44,0,243.39727279997896,,,,,,,,,243.38106719998177,243.39727279997896,246.397464699985,248.39725959999487,248.39725959999487,248.38098610000452,FOV1,GS15,01,False,2024-08-02_20h11.17.298,Gratings_vis_devJG_v0.6,2024.1.5,None,2024-08-02 20h11.27.100916 -0400,
45,0,45,0,248.39725959999487,,,,,,,,,248.3811824999866,248.39725959999487,251.39748809998855,253.3972418999765,253.3972418999765,253.38119319995167,FOV1,GS15,01,False,2024-08-02_20h11.17.298,Gratings_vis_devJG_v0.6,2024.1.5,None,2024-08-02 20h11.27.100916 -0400,
46,0,46,0,253.3972418999765,,,,,,,,,253.3814018999692,253.3972418999765,256.3974359999993,258.397389699996,258.397389699996,258.38087479997193,FOV1,GS15,01,False,2024-08-02_20h11.17.298,Gratings_vis_devJG_v0.6,2024.1.5,None,2024-08-02 20h11.27.100916 -0400,
47,0,47,0,258.397389699996,,,,,,,,,258.3810720999609,258.397389699996,261.39781699999,263.39728629996534,263.39728629996534,263.3812111999723,FOV1,GS15,01,False,2024-08-02_20h11.17.298,Gratings_vis_devJG_v0.6,2024.1.5,None,2024-08-02 20h11.27.100916 -0400,
48,0,48,0,263.39728629996534,,,,,,,,,263.38139689998934,263.39728629996534,266.3974268999882,268.39726529998006,268.39726529998006,268.38076609995915,FOV1,GS15,01,False,2024-08-02_20h11.17.298,Gratings_vis_devJG_v0.6,2024.1.5,None,2024-08-02 20h11.27.100916 -0400,
49,0,49,0,268.39726529998006,,,,,,,,,268.38095809996594,268.39726529998006,271.39736959995935,273.3973935999675,273.3973935999675,273.38083519996144,FOV1,GS15,01,False,2024-08-02_20h11.17.298,Gratings_vis_devJG_v0.6,2024.1.5,None,2024-08-02 20h11.27.100916 -0400,
50,0,50,0,273.3973935999675,,,,,,,,,273.3810204999754,273.3973935999675,276.3973226999515,278.3972530000028,278.3972530000028,278.3811485999613,FOV1,GS15,01,False,2024-08-02_20h11.17.298,Gratings_vis_devJG_v0.6,2024.1.5,None,2024-08-02 20h11.27.100916 -0400,
51,0,51,0,278.3972530000028,,,,,,,,,278.3813678000006,278.3972530000028,281.3973764999537,283.3972276999848,283.3972276999848,283.3807409000001,FOV1,GS15,01,False,2024-08-02_20h11.17.298,Gratings_vis_devJG_v0.6,2024.1.5,None,2024-08-02 20h11.27.100916 -0400,
52,0,52,0,283.3972276999848,,,,,,,,,283.3809553000028,283.41388329997426,286.3973701999639,288.3971808999777,288.3971808999777,288.38071309996303,FOV1,GS15,01,False,2024-08-02_20h11.17.298,Gratings_vis_devJG_v0.6,2024.1.5,None,2024-08-02 20h11.27.100916 -0400,
53,0,53,0,288.3971808999777,,,,,,,,,288.38089859997854,288.413953899988,291.3971864999621,293.3971368999919,293.3971368999919,293.3806308999774,FOV1,GS15,01,False,2024-08-02_20h11.17.298,Gratings_vis_devJG_v0.6,2024.1.5,None,2024-08-02 20h11.27.100916 -0400,
54,0,54,0,293.3971368999919,,,,,,,,,293.3808272999595,293.41377959999954,296.3971401999588,298.3970897999825,298.3970897999825,298.38056769996183,FOV1,GS15,01,False,2024-08-02_20h11.17.298,Gratings_vis_devJG_v0.6,2024.1.5,None,2024-08-02 20h11.27.100916 -0400,
55,0,55,0,298.3970897999825,,,,,,,,,298.3807521999697,298.4138096999959,301.3970892999787,303.3970525999903,303.3970525999903,303.3806394999847,FOV1,GS15,01,False,2024-08-02_20h11.17.298,Gratings_vis_devJG_v0.6,2024.1.5,None,2024-08-02 20h11.27.100916 -0400,
56,0,56,0,303.3970525999903,,,,,,,,,303.3808362999698,303.41379789996427,306.39714009995805,308.3970183999627,308.3970183999627,308.38082789996406,FOV1,GS15,01,False,2024-08-02_20h11.17.298,Gratings_vis_devJG_v0.6,2024.1.5,None,2024-08-02 20h11.27.100916 -0400,
57,0,57,0,308.3970183999627,,,,,,,,,308.38100309995934,308.3970183999627,311.41371699998854,313.39698510000017,313.39698510000017,313.3805798999965,FOV1,GS15,01,False,2024-08-02_20h11.17.298,Gratings_vis_devJG_v0.6,2024.1.5,None,2024-08-02 20h11.27.100916 -0400,
58,0,58,0,313.39698510000017,,,,,,,,,313.38077210000483,313.41365439997753,316.4136761999689,318.3970071999938,318.3970071999938,318.38092129997676,FOV1,GS15,01,False,2024-08-02_20h11.17.298,Gratings_vis_devJG_v0.6,2024.1.5,None,2024-08-02 20h11.27.100916 -0400,
59,0,59,0,318.3970071999938,,,,,,,,,318.3810962999705,318.4136538999737,321.41366869997,323.4039561999962,323.4039561999962,323.3805061999592,FOV1,GS15,01,False,2024-08-02_20h11.17.298,Gratings_vis_devJG_v0.6,2024.1.5,None,2024-08-02 20h11.27.100916 -0400,
